ime,Device name,Chip Time(),Acceleration X(g),Acceleration Y(g),Acceleration Z(g),Angular velocity X(�/s),Angular velocity Y(�/s),Angular velocity Z(�/s),ShiftX(mm),ShiftY(mm),ShiftZ(mm),SpeedX(mm/s),SpeedY(mm/s),SpeedZ(mm/s),Angle X(�),Angle Y(�),Angle Z(�)
01:22:09.919,eb:33:2e:f9:57:b5,,0.119141,-0.07959,0.981934,,,-0.183105,,,,,,,-3.97156,-7.78381,-125.09
01:22:09.978,eb:33:2e:f9:57:b5,,0.119141,-0.080078,0.981934,,,-0.244141,,,,,,,-3.97156,-7.78381,-125.107
01:22:10.013,eb:33:2e:f9:57:b5,,0.119141,-0.07959,0.981445,,,-0.183105,,,,,,,-3.97705,-7.78381,-125.118
01:22:10.045,eb:33:2e:f9:57:b5,,0.118652,-0.080078,0.982422,,,-0.244141,,,,,,,-3.97705,-7.78381,-125.123
01:22:10.078,eb:33:2e:f9:57:b5,,0.119141,-0.080078,0.982422,,,-0.244141,,,,,,,-3.97705,-7.78381,-125.134
01:22:10.156,eb:33:2e:f9:57:b5,,0.118652,-0.080566,0.981934,-0.061035,,-0.183105,,,,,,,-3.97705,-7.78381,-125.14
01:22:10.186,eb:33:2e:f9:57:b5,,0.119629,-0.080078,0.981934,,,-0.244141,,,,,,,-3.97705,-7.78931,-125.145
01:22:10.211,eb:33:2e:f9:57:b5,,0.118652,-0.080078,0.982422,,0.061035,-0.183105,,,,,,,-3.97705,-7.78931,-125.151
01:22:10.243,eb:33:2e:f9:57:b5,,0.119141,-0.080078,0.981445,,,-0.183105,,,,,,,-3.97705,-7.78931,-125.156
01:22:10.274,eb:33:2e:f9:57:b5,,0.119141,-0.081055,0.982422,,,-0.183105,,,,,,,-3.97705,-7.78931,-125.162
01:22:10.307,eb:33:2e:f9:57:b5,,0.118164,-0.07959,0.98291,,,-0.183105,,,,,,,-3.97705,-7.78931,-125.167
01:22:10.345,eb:33:2e:f9:57:b5,,0.118652,-0.07959,0.981934,,,-0.244141,,,,,,,-3.97156,-7.78931,-125.167
01:22:10.381,eb:33:2e:f9:57:b5,,0.118652,-0.080078,0.981934,-0.061035,,-0.183105,,,,,,,-3.97156,-7.78931,-125.173
01:22:10.430,eb:33:2e:f9:57:b5,,0.118652,-0.080078,0.981934,,,-0.183105,,,,,,,-3.97156,-7.78931,-125.178
01:22:10.471,eb:33:2e:f9:57:b5,,0.118652,-0.080566,0.981934,,0.061035,-0.244141,,,,,,,-3.97156,-7.78931,-125.178
01:22:10.511,eb:33:2e:f9:57:b5,,0.118164,-0.079102,0.982422,,,-0.183105,,,,,,,-3.97156,-7.78931,-125.184
01:22:10.552,eb:33:2e:f9:57:b5,,0.117676,-0.080078,0.981934,,,-0.244141,,,,,,,-3.97156,-7.78931,-125.184
01:22:10.606,eb:33:2e:f9:57:b5,,0.118652,-0.07959,0.982422,,,-0.244141,,,,,,,-3.97156,-7.78931,-125.189
01:22:10.644,eb:33:2e:f9:57:b5,,0.118652,-0.07959,0.981934,,,-0.183105,,,,,,,-3.97156,-7.78931,-125.189
01:22:10.686,eb:33:2e:f9:57:b5,,0.118164,-0.07959,0.981445,,,-0.183105,,,,,,,-3.97156,-7.78931,-125.189
01:22:10.751,eb:33:2e:f9:57:b5,,0.118652,-0.080078,0.981934,,,-0.244141,,,,,,,-3.97156,-7.78931,-125.195
01:22:10.786,eb:33:2e:f9:57:b5,,0.118652,-0.080566,0.981934,,0.061035,-0.183105,,,,,,,-3.97156,-7.78931,-125.195
01:22:10.822,eb:33:2e:f9:57:b5,,0.118652,-0.080078,0.981934,,,-0.244141,,,,,,,-3.97156,-7.78931,-125.195
01:22:10.879,eb:33:2e:f9:57:b5,,0.119141,-0.080078,0.981934,,,-0.244141,,,,,,,-3.97156,-7.78931,-125.2
01:22:10.914,eb:33:2e:f9:57:b5,,0.119629,-0.080566,0.982422,,,-0.183105,,,,,,,-3.97156,-7.78931,-125.2
01:22:10.966,eb:33:2e:f9:57:b5,,0.119141,-0.07959,0.981934,,,-0.183105,,,,,,,-3.97156,-7.78931,-125.2
01:22:11.005,eb:33:2e:f9:57:b5,,0.119141,-0.081055,0.982422,,,-0.244141,,,,,,,-3.97156,-7.78931,-125.2
01:22:11.046,eb:33:2e:f9:57:b5,,0.119141,-0.080078,0.981445,,,-0.183105,,,,,,,-3.97156,-7.78931,-125.206
01:22:11.065,eb:33:2e:f9:57:b5,,0.119141,-0.07959,0.98291,,,-0.183105,,,,,,,-3.97156,-7.78931,-125.206
01:22:11.127,eb:33:2e:f9:57:b5,,0.119629,-0.080078,0.982422,,0.061035,-0.244141,,,,,,,-3.97156,-7.78931,-125.206
01:22:11.135,eb:33:2e:f9:57:b5,,0.119141,-0.07959,0.981445,,,-0.244141,,,,,,,-3.97156,-7.78931,-125.206
01:22:11.160,eb:33:2e:f9:57:b5,,0.119141,-0.080078,0.98291,,,-0.183105,,,,,,,-3.97156,-7.78931,-125.206
01:22:11.238,eb:33:2e:f9:57:b5,,0.120117,-0.07959,0.981445,,,-0.244141,,,,,,,-3.97156,-7.78931,-125.211
01:22:11.270,eb:33:2e:f9:57:b5,,0.119629,-0.07959,0.98291,,,-0.183105,,,,,,,-3.97156,-7.78931,-125.211
01:22:11.301,eb:33:2e:f9:57:b5,,0.118652,-0.080078,0.982422,,-0.061035,-0.183105,,,,,,,-3.97156,-7.78931,-125.211
01:22:11.345,eb:33:2e:f9:57:b5,,0.119141,-0.080566,0.981934,,0.061035,-0.183105,,,,,,,-3.97156,-7.78931,-125.211
01:22:11.371,eb:33:2e:f9:57:b5,,0.118164,-0.080078,0.982422,,,-0.244141,,,,,,,-3.97156,-7.78931,-125.211
01:22:11.422,eb:33:2e:f9:57:b5,,0.119141,-0.080566,0.981934,,,-0.244141,,,,,,,-3.97156,-7.78931,-125.211
01:22:11.460,eb:33:2e:f9:57:b5,,0.119141,-0.079102,0.981445,,,-0.183105,,,,,,,-3.97156,-7.7948,-125.211
01:22:11.495,eb:33:2e:f9:57:b5,,0.118652,-0.081055,0.981934,,,-0.244141,,,,,,,-3.97156,-7.7948,-125.217
01:22:11.539,eb:33:2e:f9:57:b5,,0.118652,-0.080566,0.981445,,,-0.183105,,,,,,,-3.97156,-7.7948,-125.217
01:22:11.582,eb:33:2e:f9:57:b5,,0.118652,-0.080078,0.981934,,,-0.183105,,,,,,,-3.97156,-7.7948,-125.217
01:22:11.614,eb:33:2e:f9:57:b5,,0.119141,-0.080566,0.982422,,,-0.183105,,,,,,,-3.97156,-7.7948,-125.217
01:22:11.657,eb:33:2e:f9:57:b5,,0.118652,-0.080078,0.982422,,,-0.244141,,,,,,,-3.97156,-7.7948,-125.217
01:22:11.687,eb:33:2e:f9:57:b5,,0.118652,-0.079102,0.981445,,,-0.244141,,,,,,,-3.97156,-7.7948,-125.217
01:22:11.729,eb:33:2e:f9:57:b5,,0.118652,-0.079102,0.981445,,,-0.244141,,,,,,,-3.97156,-7.7948,-125.217
01:22:11.799,eb:33:2e:f9:57:b5,,0.119141,-0.080078,0.983398,,,-0.244141,,,,,,,-3.97156,-7.7948,-125.217
01:22:11.836,eb:33:2e:f9:57:b5,,0.118164,-0.080566,0.981445,,,-0.12207,,,,,,,-3.97156,-7.7948,-125.217
01:22:11.846,eb:33:2e:f9:57:b5,,0.118164,-0.081055,0.981445,,,-0.183105,,,,,,,-3.97156,-7.7948,-125.222
01:22:12.028,eb:33:2e:f9:57:b5,,0.118652,-0.07959,0.98291,,0.061035,-0.183105,,,,,,,-3.97156,-7.7948,-125.222
01:22:12.032,eb:33:2e:f9:57:b5,,0.119141,-0.080078,0.981934,,,-0.244141,,,,,,,-3.97156,-7.7948,-125.222
01:22:12.037,eb:33:2e:f9:57:b5,,0.118164,-0.080078,0.982422,,,-0.183105,,,,,,,-3.97156,-7.7948,-125.222
01:22:12.053,eb:33:2e:f9:57:b5,,0.118652,-0.078613,0.981934,,,-0.244141,,,,,,,-3.97156,-7.7948,-125.222
01:22:12.085,eb:33:2e:f9:57:b5,,0.118164,-0.080078,0.981934,,,-0.183105,,,,,,,-3.97156,-7.7948,-125.222
01:22:12.113,eb:33:2e:f9:57:b5,,0.119141,-0.080078,0.982422,,,-0.12207,,,,,,,-3.97156,-7.7948,-125.222
01:22:12.151,eb:33:2e:f9:57:b5,,0.118652,-0.080078,0.981445,-0.061035,0.061035,-0.305176,,,,,,,-3.97156,-7.7948,-125.222
01:22:12.185,eb:33:2e:f9:57:b5,,0.118164,-0.080078,0.981445,-0.061035,,-0.183105,,,,,,,-3.97156,-7.7948,-125.222
01:22:12.229,eb:33:2e:f9:57:b5,,0.120117,-0.07959,0.981934,,,-0.244141,,,,,,,-3.97156,-7.7948,-125.222
01:22:12.261,eb:33:2e:f9:57:b5,,0.118652,-0.080078,0.981934,,,-0.244141,,,,,,,-3.97156,-7.7948,-125.222
01:22:12.290,eb:33:2e:f9:57:b5,,0.118652,-0.081055,0.982422,,,-0.244141,,,,,,,-3.97156,-7.7948,-125.222
01:22:12.322,eb:33:2e:f9:57:b5,,0.119629,-0.080078,0.981934,,,-0.183105,,,,,,,-3.97156,-7.7948,-125.228
01:22:12.377,eb:33:2e:f9:57:b5,,0.118652,-0.080566,0.982422,,,-0.244141,,,,,,,-3.97156,-7.7948,-125.228
01:22:12.433,eb:33:2e:f9:57:b5,,0.117676,-0.080078,0.981934,,,-0.244141,,,,,,,-3.97156,-7.7948,-125.228
01:22:12.449,eb:33:2e:f9:57:b5,,0.118164,-0.080078,0.981934,,,-0.183105,,,,,,,-3.97156,-7.7948,-125.228
01:22:12.498,eb:33:2e:f9:57:b5,,0.118652,-0.07959,0.98291,,0.061035,-0.183105,,,,,,,-3.97156,-7.7948,-125.228
01:22:12.529,eb:33:2e:f9:57:b5,,0.118164,-0.080078,0.981934,,0.061035,-0.244141,,,,,,,-3.97156,-7.7948,-125.228
01:22:12.560,eb:33:2e:f9:57:b5,,0.118164,-0.080078,0.982422,,,-0.244141,,,,,,,-3.97156,-7.7948,-125.228
01:22:12.609,eb:33:2e:f9:57:b5,,0.118652,-0.080078,0.982422,-0.061035,,-0.183105,,,,,,,-3.97156,-7.7948,-125.228
01:22:12.654,eb:33:2e:f9:57:b5,,0.118652,-0.07959,0.982422,,,-0.183105,,,,,,,-3.96606,-7.78931,-125.228
01:22:12.705,eb:33:2e:f9:57:b5,,0.119141,-0.080078,0.982422,,,-0.244141,,,,,,,-3.96606,-7.78931,-125.228
01:22:12.736,eb:33:2e:f9:57:b5,,0.118652,-0.080566,0.982422,,,-0.183105,,,,,,,-3.96606,-7.7948,-125.228
01:22:12.767,eb:33:2e:f9:57:b5,,0.119629,-0.080078,0.981934,,,-0.183105,,,,,,,-3.96606,-7.7948,-125.228
01:22:12.822,eb:33:2e:f9:57:b5,,0.119141,-0.080078,0.981934,,,-0.12207,,,,,,,-3.96606,-7.7948,-125.228
01:22:12.881,eb:33:2e:f9:57:b5,,0.119141,-0.081055,0.982422,,,-0.183105,,,,,,,-3.96606,-7.7948,-125.228
01:22:12.913,eb:33:2e:f9:57:b5,,0.118652,-0.080078,0.981934,,,-0.183105,,,,,,,-3.96606,-7.7948,-125.228
01:22:12.947,eb:33:2e:f9:57:b5,,0.118164,-0.07959,0.982422,,,-0.183105,,,,,,,-3.96606,-7.7948,-125.228
01:22:13.006,eb:33:2e:f9:57:b5,,0.118652,-0.079102,0.980957,,0.061035,-0.183105,,,,,,,-3.96606,-7.7948,-125.228
01:22:13.036,eb:33:2e:f9:57:b5,,0.118652,-0.080078,0.98291,,,-0.183105,,,,,,,-3.96606,-7.7948,-125.228
01:22:13.069,eb:33:2e:f9:57:b5,,0.119141,-0.081055,0.981934,,,-0.183105,,,,,,,-3.96606,-7.7948,-125.228
01:22:13.126,eb:33:2e:f9:57:b5,,0.118652,-0.080078,0.981934,,,-0.244141,,,,,,,-3.96606,-7.7948,-125.233
01:22:13.160,eb:33:2e:f9:57:b5,,0.119141,-0.07959,0.981445,,,-0.183105,,,,,,,-3.96606,-7.7948,-125.233
01:22:13.181,eb:33:2e:f9:57:b5,,0.119141,-0.080078,0.98291,,0.061035,-0.244141,,,,,,,-3.96606,-7.7948,-125.233
01:22:13.229,eb:33:2e:f9:57:b5,,0.119629,-0.080078,0.982422,,,-0.244141,,,,,,,-3.96606,-7.7948,-125.233
01:22:13.259,eb:33:2e:f9:57:b5,,0.119629,-0.079102,0.98291,,,-0.183105,,,,,,,-3.96606,-7.7948,-125.233
01:22:13.309,eb:33:2e:f9:57:b5,,0.119629,-0.080078,0.982422,,,-0.244141,,,,,,,-3.96606,-7.7948,-125.233
01:22:13.343,eb:33:2e:f9:57:b5,,0.119141,-0.080078,0.981445,,,-0.183105,,,,,,,-3.96606,-7.7948,-125.233
01:22:13.372,eb:33:2e:f9:57:b5,,0.119141,-0.080566,0.982422,,0.061035,-0.183105,,,,,,,-3.96606,-7.7948,-125.233
01:22:13.514,eb:33:2e:f9:57:b5,,0.118164,-0.080566,0.981934,,,-0.244141,,,,,,,-3.96606,-7.7948,-125.233
01:22:13.545,eb:33:2e:f9:57:b5,,0.119141,-0.07959,0.982422,,0.061035,-0.244141,,,,,,,-3.96606,-7.7948,-125.233
01:22:13.564,eb:33:2e:f9:57:b5,,0.118652,-0.080078,0.982422,,,-0.244141,,,,,,,-3.96606,-7.7948,-125.233
01:22:13.577,eb:33:2e:f9:57:b5,,0.119629,-0.080566,0.981934,,,-0.183105,,,,,,,-3.96606,-7.7948,-125.233
01:22:13.596,eb:33:2e:f9:57:b5,,0.118652,-0.080078,0.98291,,,-0.244141,,,,,,,-3.96606,-7.7948,-125.233
01:22:13.629,eb:33:2e:f9:57:b5,,0.118164,-0.07959,0.982422,,,-0.244141,,,,,,,-3.96606,-7.7948,-125.233
01:22:13.674,eb:33:2e:f9:57:b5,,0.118652,-0.080078,0.981934,,,-0.305176,,,,,,,-3.96606,-7.7948,-125.233
01:22:14.105,eb:33:2e:f9:57:b5,,0.118652,-0.080078,0.98291,-0.061035,,-0.183105,,,,,,,-3.96606,-7.7948,-125.233
01:22:14.118,eb:33:2e:f9:57:b5,,0.118652,-0.079102,0.982422,,,-0.183105,,,,,,,-3.96606,-7.7948,-125.233
01:22:14.118,eb:33:2e:f9:57:b5,,0.118164,-0.080566,0.981934,,,-0.244141,,,,,,,-3.96606,-7.7948,-125.233
01:22:14.118,eb:33:2e:f9:57:b5,,0.118652,-0.079102,0.982422,,,-0.244141,,,,,,,-3.96606,-7.7948,-125.233
01:22:14.139,eb:33:2e:f9:57:b5,,0.119629,-0.07959,0.981445,,,-0.244141,,,,,,,-3.96606,-7.7948,-125.233
01:22:14.148,eb:33:2e:f9:57:b5,,0.118164,-0.080078,0.981445,,,-0.244141,,,,,,,-3.96606,-7.7948,-125.233
01:22:14.150,eb:33:2e:f9:57:b5,,0.118652,-0.080078,0.981934,,,-0.12207,,,,,,,-3.96606,-7.7948,-125.233
01:22:14.150,eb:33:2e:f9:57:b5,,0.118652,-0.080078,0.981934,,,-0.183105,,,,,,,-3.96606,-7.7948,-125.233
01:22:14.150,eb:33:2e:f9:57:b5,,0.119141,-0.080078,0.982422,,,-0.244141,,,,,,,-3.96606,-7.7948,-125.233
01:22:14.170,eb:33:2e:f9:57:b5,,0.118652,-0.080078,0.981445,,,-0.183105,,,,,,,-3.96606,-7.7948,-125.233
01:22:14.198,eb:33:2e:f9:57:b5,,0.119141,-0.079102,0.981934,,,-0.244141,,,,,,,-3.96606,-7.7948,-125.233
01:22:14.204,eb:33:2e:f9:57:b5,,0.119629,-0.07959,0.982422,,,-0.244141,,,,,,,-3.96606,-7.7948,-125.233
01:22:14.210,eb:33:2e:f9:57:b5,,0.119141,-0.080078,0.982422,,,-0.183105,,,,,,,-3.96606,-7.7948,-125.233
01:22:14.247,eb:33:2e:f9:57:b5,,0.119141,-0.080566,0.98291,,,-0.183105,,,,,,,-3.96606,-7.7948,-125.233
01:22:14.405,eb:33:2e:f9:57:b5,,0.119629,-0.080078,0.981934,,0.061035,-0.183105,,,,,,,-3.96606,-7.7948,-125.233
01:22:14.405,eb:33:2e:f9:57:b5,,0.118652,-0.080078,0.982422,,,-0.244141,,,,,,,-3.96606,-7.7948,-125.233
01:22:14.420,eb:33:2e:f9:57:b5,,0.119629,-0.07959,0.981934,,,-0.183105,,,,,,,-3.96606,-7.7948,-125.239
01:22:14.420,eb:33:2e:f9:57:b5,,0.118652,-0.080078,0.982422,,,-0.183105,,,,,,,-3.96606,-7.7948,-125.239
01:22:14.452,eb:33:2e:f9:57:b5,,0.118652,-0.080566,0.981934,,,-0.244141,,,,,,,-3.96606,-7.7948,-125.239
01:22:14.484,eb:33:2e:f9:57:b5,,0.119629,-0.07959,0.981934,,,-0.244141,,,,,,,-3.96606,-7.7948,-125.239
01:22:14.538,eb:33:2e:f9:57:b5,,0.119141,-0.080566,0.981934,,,-0.244141,,,,,,,-3.96606,-7.7948,-125.239
01:22:14.567,eb:33:2e:f9:57:b5,,0.118652,-0.07959,0.981934,,,-0.183105,,,,,,,-3.96606,-7.7948,-125.239
01:22:14.596,eb:33:2e:f9:57:b5,,0.119629,-0.080566,0.982422,,,-0.244141,,,,,,,-3.96606,-7.7948,-125.239
01:22:14.627,eb:33:2e:f9:57:b5,,0.119629,-0.080078,0.982422,,0.061035,-0.183105,,,,,,,-3.96606,-7.7948,-125.239
01:22:14.659,eb:33:2e:f9:57:b5,,0.118652,-0.080078,0.982422,,,-0.183105,,,,,,,-3.96606,-7.7948,-125.239
01:22:14.707,eb:33:2e:f9:57:b5,,0.118652,-0.080566,0.982422,,,-0.183105,,,,,,,-3.96606,-7.7948,-125.239
01:22:14.772,eb:33:2e:f9:57:b5,,0.119629,-0.080078,0.982422,,,-0.183105,,,,,,,-3.96606,-7.7948,-125.239
01:22:14.804,eb:33:2e:f9:57:b5,,0.118652,-0.07959,0.982422,,0.061035,-0.183105,,,,,,,-3.96606,-7.7948,-125.239
01:22:14.835,eb:33:2e:f9:57:b5,,0.119141,-0.080566,0.981934,,,-0.183105,,,,,,,-3.96606,-7.7948,-125.239
01:22:14.897,eb:33:2e:f9:57:b5,,0.118652,-0.07959,0.981934,,,-0.244141,,,,,,,-3.96606,-7.7948,-125.239
01:22:14.914,eb:33:2e:f9:57:b5,,0.119141,-0.07959,0.981445,,,-0.183105,,,,,,,-3.96606,-7.7948,-125.239
01:22:15.186,eb:33:2e:f9:57:b5,,0.119141,-0.080078,0.982422,,,-0.244141,,,,,,,-3.96606,-7.7948,-125.239
01:22:15.186,eb:33:2e:f9:57:b5,,0.118652,-0.080078,0.98291,,,-0.183105,,,,,,,-3.96606,-7.7948,-125.239
01:22:15.199,eb:33:2e:f9:57:b5,,0.119629,-0.080078,0.981934,,,-0.183105,,,,,,,-3.96606,-7.7948,-125.239
01:22:15.211,eb:33:2e:f9:57:b5,,0.118164,-0.080078,0.98291,,,-0.12207,,,,,,,-3.96606,-7.7948,-125.239
01:22:15.215,eb:33:2e:f9:57:b5,,0.118652,-0.080078,0.98291,,,-0.244141,,,,,,,-3.96606,-7.7948,-125.239
01:22:15.215,eb:33:2e:f9:57:b5,,0.118164,-0.080078,0.982422,,,-0.183105,,,,,,,-3.96606,-7.7948,-125.239
01:22:15.250,eb:33:2e:f9:57:b5,,0.119141,-0.080566,0.981934,,,-0.244141,,,,,,,-3.96606,-7.7948,-125.239
01:22:15.250,eb:33:2e:f9:57:b5,,0.119141,-0.07959,0.981934,,,-0.244141,,,,,,,-3.96606,-7.7948,-125.239
01:22:15.279,eb:33:2e:f9:57:b5,,0.118164,-0.080078,0.981934,,,-0.183105,,,,,,,-3.96606,-7.7948,-125.239
01:22:15.311,eb:33:2e:f9:57:b5,,0.119141,-0.080078,0.983398,,,-0.183105,,,,,,,-3.96606,-7.7948,-125.239
01:22:15.358,eb:33:2e:f9:57:b5,,0.118652,-0.07959,0.981934,,,-0.244141,,,,,,,-3.96606,-7.7948,-125.239
01:22:15.390,eb:33:2e:f9:57:b5,,0.119141,-0.080078,0.981934,,,-0.12207,,,,,,,-3.96606,-7.7948,-125.239
01:22:15.439,eb:33:2e:f9:57:b5,,0.118652,-0.080566,0.982422,-0.061035,,-0.183105,,,,,,,-3.96606,-7.7948,-125.239
01:22:15.482,eb:33:2e:f9:57:b5,,0.118652,-0.080078,0.981934,,,-0.183105,,,,,,,-3.96606,-7.7948,-125.239
01:22:15.526,eb:33:2e:f9:57:b5,,0.119141,-0.080078,0.981934,,,-0.244141,,,,,,,-3.96606,-7.7948,-125.239
01:22:15.582,eb:33:2e:f9:57:b5,,0.118652,-0.080078,0.981445,,,-0.183105,,,,,,,-3.96606,-7.7948,-125.239
01:22:15.614,eb:33:2e:f9:57:b5,,0.119141,-0.080078,0.981934,,,-0.183105,,,,,,,-3.96606,-7.7948,-125.239
01:22:15.648,eb:33:2e:f9:57:b5,,0.118652,-0.080078,0.981934,,,-0.244141,,,,,,,-3.96606,-7.7948,-125.239
01:22:15.709,eb:33:2e:f9:57:b5,,0.119141,-0.079102,0.981934,,,-0.183105,,,,,,,-3.96606,-7.7948,-125.239
01:22:15.741,eb:33:2e:f9:57:b5,,0.118652,-0.07959,0.981445,,,-0.183105,,,,,,,-3.96606,-7.7948,-125.239
01:22:15.773,eb:33:2e:f9:57:b5,,0.119141,-0.07959,0.982422,,,-0.244141,,,,,,,-3.96606,-7.80029,-125.239
01:22:15.804,eb:33:2e:f9:57:b5,,0.119141,-0.080078,0.982422,,0.061035,-0.183105,,,,,,,-3.96606,-7.80029,-125.239
01:22:15.837,eb:33:2e:f9:57:b5,,0.119141,-0.080078,0.982422,-0.061035,0.061035,-0.183105,,,,,,,-3.96606,-7.80029,-125.239
01:22:15.896,eb:33:2e:f9:57:b5,,0.118652,-0.07959,0.981934,,,-0.244141,,,,,,,-3.96606,-7.80029,-125.239
01:22:15.917,eb:33:2e:f9:57:b5,,0.119141,-0.07959,0.98291,,,-0.244141,,,,,,,-3.96606,-7.80029,-125.239
01:22:15.997,eb:33:2e:f9:57:b5,,0.118652,-0.07959,0.981934,,,-0.244141,,,,,,,-3.96606,-7.80029,-125.239
01:22:16.037,eb:33:2e:f9:57:b5,,0.118652,-0.080566,0.981934,,,-0.183105,,,,,,,-3.96606,-7.80029,-125.239
01:22:16.068,eb:33:2e:f9:57:b5,,0.118652,-0.080078,0.981934,,,-0.183105,,,,,,,-3.96606,-7.80029,-125.239
01:22:16.106,eb:33:2e:f9:57:b5,,0.118652,-0.07959,0.981934,,,-0.244141,,,,,,,-3.96606,-7.80029,-125.239
01:22:16.139,eb:33:2e:f9:57:b5,,0.119141,-0.07959,0.982422,,0.061035,-0.12207,,,,,,,-3.96606,-7.80029,-125.239
01:22:16.173,eb:33:2e:f9:57:b5,,0.119141,-0.080078,0.981445,-0.061035,,-0.244141,,,,,,,-3.96606,-7.80029,-125.239
01:22:16.203,eb:33:2e:f9:57:b5,,0.118652,-0.080566,0.982422,-0.061035,,-0.305176,,,,,,,-3.96606,-7.80029,-125.239
01:22:16.270,eb:33:2e:f9:57:b5,,0.118652,-0.07959,0.982422,,,-0.244141,,,,,,,-3.96606,-7.80029,-125.239
01:22:16.311,eb:33:2e:f9:57:b5,,0.119141,-0.080078,0.981445,,,-0.183105,,,,,,,-3.96606,-7.80029,-125.239
01:22:16.335,eb:33:2e:f9:57:b5,,0.118652,-0.080078,0.981934,,,-0.244141,,,,,,,-3.96606,-7.80029,-125.239
01:22:16.378,eb:33:2e:f9:57:b5,,0.118652,-0.07959,0.98291,,,-0.244141,,,,,,,-3.96606,-7.80029,-125.239
01:22:16.410,eb:33:2e:f9:57:b5,,0.119141,-0.07959,0.982422,,,-0.183105,,,,,,,-3.96606,-7.80029,-125.239
01:22:16.441,eb:33:2e:f9:57:b5,,0.119141,-0.080566,0.982422,,,-0.183105,,,,,,,-3.96606,-7.80029,-125.239
01:22:16.488,eb:33:2e:f9:57:b5,,0.119141,-0.080566,0.982422,,,-0.244141,,,,,,,-3.96606,-7.80029,-125.239
01:22:16.525,eb:33:2e:f9:57:b5,,0.119141,-0.080566,0.981445,,,-0.244141,,,,,,,-3.96606,-7.80029,-125.239
01:22:16.552,eb:33:2e:f9:57:b5,,0.119141,-0.080566,0.982422,,,-0.244141,,,,,,,-3.96606,-7.80029,-125.239
01:22:16.602,eb:33:2e:f9:57:b5,,0.118164,-0.07959,0.98291,,,-0.244141,,,,,,,-3.96606,-7.80029,-125.239
01:22:16.664,eb:33:2e:f9:57:b5,,0.119141,-0.080078,0.982422,-0.061035,,-0.244141,,,,,,,-3.96606,-7.80029,-125.239
01:22:16.694,eb:33:2e:f9:57:b5,,0.119141,-0.080078,0.983398,,0.061035,-0.183105,,,,,,,-3.96606,-7.80029,-125.239
01:22:16.733,eb:33:2e:f9:57:b5,,0.118652,-0.080078,0.981934,,,-0.183105,,,,,,,-3.96606,-7.80029,-125.239
01:22:16.773,eb:33:2e:f9:57:b5,,0.119629,-0.080566,0.982422,,,-0.183105,,,,,,,-3.96606,-7.80029,-125.239
01:22:16.805,eb:33:2e:f9:57:b5,,0.119141,-0.080566,0.982422,,,-0.183105,,,,,,,-3.96606,-7.80029,-125.239
01:22:16.855,eb:33:2e:f9:57:b5,,0.118652,-0.07959,0.981934,,,-0.183105,,,,,,,-3.96606,-7.80029,-125.239
01:22:16.901,eb:33:2e:f9:57:b5,,0.119141,-0.080566,0.982422,-0.061035,,-0.244141,,,,,,,-3.96606,-7.80029,-125.239
01:22:16.933,eb:33:2e:f9:57:b5,,0.119141,-0.080078,0.982422,-0.061035,,-0.183105,,,,,,,-3.96606,-7.80029,-125.239
01:22:16.979,eb:33:2e:f9:57:b5,,0.119141,-0.080078,0.982422,,,-0.183105,,,,,,,-3.96606,-7.80029,-125.239
01:22:17.011,eb:33:2e:f9:57:b5,,0.118652,-0.080566,0.982422,,,-0.183105,,,,,,,-3.96606,-7.80029,-125.244
01:22:17.059,eb:33:2e:f9:57:b5,,0.119629,-0.080078,0.981934,,0.061035,-0.183105,,,,,,,-3.96606,-7.80029,-125.244
01:22:17.091,eb:33:2e:f9:57:b5,,0.119141,-0.080078,0.981934,,,-0.183105,,,,,,,-3.96606,-7.80029,-125.244
01:22:17.134,eb:33:2e:f9:57:b5,,0.118652,-0.07959,0.98291,,,-0.183105,,,,,,,-3.96606,-7.80029,-125.244
01:22:17.171,eb:33:2e:f9:57:b5,,0.119141,-0.07959,0.982422,,,-0.244141,,,,,,,-3.96606,-7.80029,-125.244
01:22:17.219,eb:33:2e:f9:57:b5,,0.118652,-0.080078,0.982422,,,-0.183105,,,,,,,-3.96606,-7.80029,-125.244
01:22:17.265,eb:33:2e:f9:57:b5,,0.118164,-0.080078,0.982422,,,-0.183105,,,,,,,-3.96606,-7.80029,-125.244
01:22:17.303,eb:33:2e:f9:57:b5,,0.119141,-0.080078,0.982422,,,-0.183105,,,,,,,-3.96606,-7.80029,-125.244
01:22:17.329,eb:33:2e:f9:57:b5,,0.118652,-0.07959,0.982422,,,-0.183105,,,,,,,-3.96606,-7.80029,-125.244
01:22:17.364,eb:33:2e:f9:57:b5,,0.119141,-0.080078,0.982422,,,-0.244141,,,,,,,-3.96606,-7.80029,-125.244
01:22:17.408,eb:33:2e:f9:57:b5,,0.119629,-0.080078,0.982422,,,-0.244141,,,,,,,-3.96606,-7.80029,-125.244
01:22:17.455,eb:33:2e:f9:57:b5,,0.119141,-0.07959,0.981445,,,-0.244141,,,,,,,-3.96606,-7.80029,-125.244
01:22:17.494,eb:33:2e:f9:57:b5,,0.118652,-0.07959,0.982422,-0.061035,,-0.183105,,,,,,,-3.96606,-7.80029,-125.244
01:22:17.538,eb:33:2e:f9:57:b5,,0.118164,-0.080078,0.981934,,,-0.183105,,,,,,,-3.96606,-7.80029,-125.244
01:22:17.566,eb:33:2e:f9:57:b5,,0.119141,-0.080078,0.981934,,,-0.183105,,,,,,,-3.96606,-7.80029,-125.244
01:22:17.614,eb:33:2e:f9:57:b5,,0.118652,-0.080078,0.981934,,,-0.244141,,,,,,,-3.96606,-7.80029,-125.244
01:22:17.655,eb:33:2e:f9:57:b5,,0.118652,-0.080078,0.981934,,,-0.244141,,,,,,,-3.96606,-7.80029,-125.244
01:22:17.702,eb:33:2e:f9:57:b5,,0.118652,-0.081055,0.982422,,,-0.305176,,,,,,,-3.96606,-7.80029,-125.244
01:22:17.725,eb:33:2e:f9:57:b5,,0.118652,-0.080566,0.982422,,0.061035,-0.244141,,,,,,,-3.96606,-7.80029,-125.244
01:22:17.773,eb:33:2e:f9:57:b5,,0.118652,-0.080566,0.982422,,,-0.183105,,,,,,,-3.96606,-7.80029,-125.244
01:22:17.815,eb:33:2e:f9:57:b5,,0.118164,-0.080078,0.981934,,,-0.244141,,,,,,,-3.96606,-7.80029,-125.244
01:22:17.852,eb:33:2e:f9:57:b5,,0.118164,-0.080078,0.982422,-0.061035,,-0.244141,,,,,,,-3.96606,-7.80029,-125.244
01:22:17.899,eb:33:2e:f9:57:b5,,0.119141,-0.080078,0.981934,,,-0.244141,,,,,,,-3.96606,-7.80029,-125.244
01:22:17.933,eb:33:2e:f9:57:b5,,0.119141,-0.080078,0.981934,,,-0.183105,,,,,,,-3.96606,-7.80029,-125.244
01:22:17.971,eb:33:2e:f9:57:b5,,0.119141,-0.080566,0.981445,,,-0.183105,,,,,,,-3.96606,-7.80029,-125.244
01:22:18.010,eb:33:2e:f9:57:b5,,0.118652,-0.080078,0.982422,,,-0.244141,,,,,,,-3.96606,-7.80029,-125.244
01:22:18.055,eb:33:2e:f9:57:b5,,0.118652,-0.07959,0.982422,,,-0.244141,,,,,,,-3.96606,-7.80029,-125.244
01:22:18.091,eb:33:2e:f9:57:b5,,0.119141,-0.080078,0.982422,,0.061035,-0.183105,,,,,,,-3.96606,-7.80029,-125.244
01:22:18.138,eb:33:2e:f9:57:b5,,0.118652,-0.080078,0.982422,,,-0.183105,,,,,,,-3.96606,-7.80029,-125.244
01:22:18.191,eb:33:2e:f9:57:b5,,0.118652,-0.07959,0.981445,,,-0.183105,,,,,,,-3.96606,-7.80029,-125.244
01:22:18.225,eb:33:2e:f9:57:b5,,0.118652,-0.07959,0.982422,,,-0.183105,,,,,,,-3.96606,-7.80029,-125.244
01:22:18.265,eb:33:2e:f9:57:b5,,0.119141,-0.080078,0.981934,,,-0.244141,,,,,,,-3.96606,-7.80029,-125.244
01:22:18.311,eb:33:2e:f9:57:b5,,0.118652,-0.080566,0.982422,,,-0.244141,,,,,,,-3.96606,-7.80029,-125.244
01:22:18.343,eb:33:2e:f9:57:b5,,0.118652,-0.080078,0.981934,,,-0.183105,,,,,,,-3.96606,-7.80029,-125.244
01:22:18.387,eb:33:2e:f9:57:b5,,0.118652,-0.080566,0.981934,,,-0.183105,,,,,,,-3.96606,-7.80029,-125.244
01:22:18.422,eb:33:2e:f9:57:b5,,0.119141,-0.07959,0.981445,,,-0.183105,,,,,,,-3.96606,-7.80029,-125.244
01:22:18.470,eb:33:2e:f9:57:b5,,0.118652,-0.080566,0.98291,,,-0.183105,,,,,,,-3.96606,-7.80029,-125.244
01:22:18.502,eb:33:2e:f9:57:b5,,0.118652,-0.081055,0.982422,,0.061035,-0.244141,,,,,,,-3.96606,-7.80029,-125.244
01:22:18.552,eb:33:2e:f9:57:b5,,0.118164,-0.080078,0.981934,,,-0.183105,,,,,,,-3.96606,-7.80029,-125.244
01:22:18.597,eb:33:2e:f9:57:b5,,0.118652,-0.080078,0.981934,,,-0.183105,,,,,,,-3.96606,-7.80029,-125.244
01:22:18.628,eb:33:2e:f9:57:b5,,0.118652,-0.080078,0.981445,,,-0.12207,,,,,,,-3.96606,-7.80029,-125.244
01:22:18.679,eb:33:2e:f9:57:b5,,0.119141,-0.07959,0.982422,,0.061035,-0.244141,,,,,,,-3.96606,-7.80029,-125.244
01:22:18.715,eb:33:2e:f9:57:b5,,0.118652,-0.07959,0.982422,,,-0.183105,,,,,,,-3.96606,-7.80029,-125.244
01:22:18.753,eb:33:2e:f9:57:b5,,0.118652,-0.07959,0.982422,,,-0.183105,,,,,,,-3.96606,-7.80029,-125.244
01:22:18.801,eb:33:2e:f9:57:b5,,0.118652,-0.07959,0.981934,,,-0.244141,,,,,,,-3.96606,-7.80029,-125.244
01:22:18.836,eb:33:2e:f9:57:b5,,0.118652,-0.07959,0.982422,,,-0.244141,,,,,,,-3.96606,-7.80029,-125.244
01:22:18.867,eb:33:2e:f9:57:b5,,0.119141,-0.080078,0.981934,,,-0.183105,,,,,,,-3.96606,-7.80029,-125.244
01:22:18.907,eb:33:2e:f9:57:b5,,0.119141,-0.07959,0.98291,,,-0.12207,,,,,,,-3.96606,-7.80029,-125.244
01:22:18.956,eb:33:2e:f9:57:b5,,0.119141,-0.080078,0.982422,,,-0.244141,,,,,,,-3.96606,-7.80029,-125.244
01:22:18.991,eb:33:2e:f9:57:b5,,0.119141,-0.080566,0.981934,,0.061035,-0.183105,,,,,,,-3.96606,-7.80029,-125.244
01:22:19.025,eb:33:2e:f9:57:b5,,0.118652,-0.080566,0.982422,,,-0.244141,,,,,,,-3.96606,-7.80029,-125.244
01:22:19.072,eb:33:2e:f9:57:b5,,0.119141,-0.079102,0.981934,,,-0.183105,,,,,,,-3.96606,-7.80029,-125.244
01:22:19.104,eb:33:2e:f9:57:b5,,0.118652,-0.079102,0.981934,-0.061035,,-0.183105,,,,,,,-3.96606,-7.80029,-125.244
01:22:19.140,eb:33:2e:f9:57:b5,,0.118652,-0.080566,0.982422,,,-0.183105,,,,,,,-3.96606,-7.80029,-125.244
01:22:19.184,eb:33:2e:f9:57:b5,,0.119141,-0.080566,0.982422,,0.061035,-0.183105,,,,,,,-3.96606,-7.80029,-125.244
01:22:19.233,eb:33:2e:f9:57:b5,,0.118652,-0.080566,0.982422,,0.061035,-0.244141,,,,,,,-3.96606,-7.80029,-125.244
01:22:19.266,eb:33:2e:f9:57:b5,,0.119629,-0.080078,0.98291,,,-0.244141,,,,,,,-3.96606,-7.80029,-125.244
01:22:19.317,eb:33:2e:f9:57:b5,,0.119141,-0.07959,0.982422,-0.061035,,-0.183105,,,,,,,-3.96606,-7.80029,-125.244
01:22:19.352,eb:33:2e:f9:57:b5,,0.119629,-0.080078,0.981934,,,-0.183105,,,,,,,-3.96606,-7.80029,-125.244
01:22:19.389,eb:33:2e:f9:57:b5,,0.118652,-0.080078,0.982422,,,-0.183105,,,,,,,-3.96606,-7.80029,-125.244
01:22:19.436,eb:33:2e:f9:57:b5,,0.118652,-0.080078,0.981934,,,-0.12207,,,,,,,-3.96606,-7.80029,-125.244
01:22:19.468,eb:33:2e:f9:57:b5,,0.119629,-0.07959,0.981934,,,-0.244141,,,,,,,-3.96606,-7.80029,-125.244
01:22:19.506,eb:33:2e:f9:57:b5,,0.119629,-0.07959,0.981934,,,-0.244141,,,,,,,-3.96606,-7.80029,-125.244
01:22:19.548,eb:33:2e:f9:57:b5,,0.119141,-0.080078,0.98291,,,-0.183105,,,,,,,-3.96606,-7.80029,-125.244
01:22:19.579,eb:33:2e:f9:57:b5,,0.118652,-0.07959,0.982422,,,-0.244141,,,,,,,-3.96606,-7.80029,-125.244
01:22:19.630,eb:33:2e:f9:57:b5,,0.118652,-0.080078,0.981934,,,-0.305176,,,,,,,-3.96606,-7.80029,-125.244
01:22:19.672,eb:33:2e:f9:57:b5,,0.118652,-0.080078,0.981934,,0.061035,-0.183105,,,,,,,-3.96606,-7.80029,-125.244
01:22:19.720,eb:33:2e:f9:57:b5,,0.119141,-0.080078,0.982422,,,-0.244141,,,,,,,-3.96606,-7.80029,-125.244
01:22:19.752,eb:33:2e:f9:57:b5,,0.119141,-0.080078,0.98291,,0.061035,-0.183105,,,,,,,-3.96606,-7.80029,-125.244
01:22:19.793,eb:33:2e:f9:57:b5,,0.118652,-0.081055,0.982422,,,-0.244141,,,,,,,-3.96606,-7.80029,-125.244
01:22:19.831,eb:33:2e:f9:57:b5,,0.118652,-0.079102,0.98291,,0.061035,-0.244141,,,,,,,-3.96606,-7.80029,-125.244
01:22:19.879,eb:33:2e:f9:57:b5,,0.118652,-0.080078,0.981445,,,-0.183105,,,,,,,-3.96606,-7.80029,-125.244
01:22:19.926,eb:33:2e:f9:57:b5,,0.119629,-0.080078,0.98291,,,-0.183105,,,,,,,-3.96606,-7.80029,-125.244
01:22:19.958,eb:33:2e:f9:57:b5,,0.119141,-0.07959,0.98291,-0.061035,,-0.183105,,,,,,,-3.96606,-7.80029,-125.244
01:22:20.009,eb:33:2e:f9:57:b5,,0.119141,-0.07959,0.981934,,,-0.183105,,,,,,,-3.96606,-7.80029,-125.244
01:22:20.036,eb:33:2e:f9:57:b5,,0.119141,-0.080078,0.982422,,0.061035,-0.244141,,,,,,,-3.96606,-7.80029,-125.244
01:22:20.068,eb:33:2e:f9:57:b5,,0.119141,-0.080566,0.98291,,,-0.244141,,,,,,,-3.96606,-7.80029,-125.244
01:22:20.119,eb:33:2e:f9:57:b5,,0.118164,-0.080078,0.982422,,,-0.183105,,,,,,,-3.96606,-7.80029,-125.244
01:22:20.155,eb:33:2e:f9:57:b5,,0.119141,-0.07959,0.981934,,,-0.244141,,,,,,,-3.96606,-7.80029,-125.244
01:22:20.194,eb:33:2e:f9:57:b5,,0.119629,-0.07959,0.981934,,,-0.183105,,,,,,,-3.96606,-7.80029,-125.244
01:22:20.244,eb:33:2e:f9:57:b5,,0.119141,-0.07959,0.982422,,,-0.183105,,,,,,,-3.96606,-7.80029,-125.244
01:22:20.273,eb:33:2e:f9:57:b5,,0.119141,-0.079102,0.981445,,,-0.244141,,,,,,,-3.96606,-7.80029,-125.244
01:22:20.319,eb:33:2e:f9:57:b5,,0.119629,-0.080566,0.982422,,,-0.244141,,,,,,,-3.96606,-7.80029,-125.244
01:22:20.352,eb:33:2e:f9:57:b5,,0.119141,-0.080078,0.981934,-0.061035,,-0.244141,,,,,,,-3.96606,-7.80029,-125.244
01:22:20.405,eb:33:2e:f9:57:b5,,0.119141,-0.080078,0.981934,,,-0.244141,,,,,,,-3.96606,-7.80029,-125.244
01:22:20.448,eb:33:2e:f9:57:b5,,0.118652,-0.080078,0.981934,,0.061035,-0.183105,,,,,,,-3.96606,-7.80029,-125.244
01:22:20.483,eb:33:2e:f9:57:b5,,0.119141,-0.07959,0.981934,,,-0.183105,,,,,,,-3.96606,-7.80029,-125.244
01:22:20.519,eb:33:2e:f9:57:b5,,0.118652,-0.080078,0.981934,,,-0.183105,,,,,,,-3.96606,-7.80029,-125.244
01:22:20.559,eb:33:2e:f9:57:b5,,0.119141,-0.07959,0.98291,,,-0.183105,,,,,,,-3.96606,-7.80029,-125.244
01:22:20.612,eb:33:2e:f9:57:b5,,0.119629,-0.080078,0.982422,-0.061035,,-0.244141,,,,,,,-3.96606,-7.80029,-125.244
01:22:20.639,eb:33:2e:f9:57:b5,,0.118652,-0.080566,0.981934,,,-0.12207,,,,,,,-3.96606,-7.80029,-125.244
01:22:20.686,eb:33:2e:f9:57:b5,,0.119629,-0.080078,0.981445,-0.061035,,-0.183105,,,,,,,-3.96606,-7.80029,-125.244
01:22:20.739,eb:33:2e:f9:57:b5,,0.117676,-0.080078,0.981445,,,-0.244141,,,,,,,-3.96606,-7.80029,-125.244
01:22:20.773,eb:33:2e:f9:57:b5,,0.119141,-0.080078,0.981934,,0.061035,-0.244141,,,,,,,-3.96606,-7.80029,-125.244
01:22:20.806,eb:33:2e:f9:57:b5,,0.118652,-0.080078,0.981934,,,-0.183105,,,,,,,-3.96606,-7.80029,-125.244
01:22:20.840,eb:33:2e:f9:57:b5,,0.119141,-0.081055,0.982422,,,-0.244141,,,,,,,-3.96606,-7.80029,-125.244
01:22:20.877,eb:33:2e:f9:57:b5,,0.119629,-0.080566,0.981934,,,-0.183105,,,,,,,-3.96606,-7.80029,-125.244
01:22:20.909,eb:33:2e:f9:57:b5,,0.119629,-0.080078,0.982422,,,-0.183105,,,,,,,-3.96606,-7.80029,-125.244
01:22:20.962,eb:33:2e:f9:57:b5,,0.118652,-0.080566,0.981934,,,-0.183105,,,,,,,-3.96606,-7.80029,-125.244
01:22:21.002,eb:33:2e:f9:57:b5,,0.118652,-0.080078,0.982422,,,-0.183105,,,,,,,-3.96606,-7.80029,-125.244
01:22:21.038,eb:33:2e:f9:57:b5,,0.118652,-0.080078,0.982422,,,-0.183105,,,,,,,-3.96606,-7.80029,-125.244
01:22:21.084,eb:33:2e:f9:57:b5,,0.118652,-0.080566,0.981934,,,-0.183105,,,,,,,-3.96606,-7.80029,-125.244
01:22:21.115,eb:33:2e:f9:57:b5,,0.119141,-0.080078,0.98291,,,-0.244141,,,,,,,-3.96606,-7.80029,-125.244
01:22:21.163,eb:33:2e:f9:57:b5,,0.118652,-0.07959,0.982422,,,-0.244141,,,,,,,-3.96606,-7.80029,-125.244
01:22:21.214,eb:33:2e:f9:57:b5,,0.118164,-0.079102,0.981934,-0.12207,,-0.183105,,,,,,,-3.96606,-7.80029,-125.244
01:22:21.244,eb:33:2e:f9:57:b5,,0.118652,-0.080078,0.982422,,,-0.244141,,,,,,,-3.96606,-7.80029,-125.244
01:22:21.307,eb:33:2e:f9:57:b5,,0.119141,-0.080566,0.981934,,,-0.183105,,,,,,,-3.96606,-7.80029,-125.244
01:22:21.355,eb:33:2e:f9:57:b5,,0.119141,-0.07959,0.98291,,0.061035,-0.244141,,,,,,,-3.96606,-7.80029,-125.244
01:22:21.385,eb:33:2e:f9:57:b5,,0.118652,-0.080078,0.981934,,0.061035,-0.183105,,,,,,,-3.96606,-7.80029,-125.244
01:22:21.418,eb:33:2e:f9:57:b5,,0.119629,-0.080566,0.981934,,,-0.244141,,,,,,,-3.96606,-7.80029,-125.244
01:22:21.465,eb:33:2e:f9:57:b5,,0.119141,-0.080078,0.98291,-0.061035,,-0.244141,,,,,,,-3.96606,-7.80029,-125.244
01:22:21.497,eb:33:2e:f9:57:b5,,0.119629,-0.080078,0.982422,,0.061035,-0.244141,,,,,,,-3.96606,-7.80029,-125.244
01:22:21.546,eb:33:2e:f9:57:b5,,0.118652,-0.080566,0.98291,,,-0.244141,,,,,,,-3.96606,-7.80029,-125.244
01:22:21.578,eb:33:2e:f9:57:b5,,0.120117,-0.07959,0.982422,,,-0.183105,,,,,,,-3.96606,-7.80029,-125.244
01:22:21.620,eb:33:2e:f9:57:b5,,0.119141,-0.080566,0.982422,,,-0.244141,,,,,,,-3.96606,-7.80029,-125.244
01:22:21.673,eb:33:2e:f9:57:b5,,0.118652,-0.080566,0.981934,,,-0.244141,,,,,,,-3.96606,-7.80029,-125.244
01:22:21.720,eb:33:2e:f9:57:b5,,0.118652,-0.080078,0.981934,,,-0.244141,,,,,,,-3.96606,-7.80029,-125.244
01:22:21.741,eb:33:2e:f9:57:b5,,0.119141,-0.079102,0.981445,,,-0.183105,,,,,,,-3.96606,-7.80029,-125.244
01:22:21.783,eb:33:2e:f9:57:b5,,0.119141,-0.080078,0.98291,,,-0.183105,,,,,,,-3.96606,-7.80029,-125.244
01:22:21.821,eb:33:2e:f9:57:b5,,0.119141,-0.080078,0.981445,,,-0.244141,,,,,,,-3.96057,-7.80029,-125.244
01:22:21.868,eb:33:2e:f9:57:b5,,0.119141,-0.080078,0.981445,,,-0.244141,,,,,,,-3.96057,-7.80029,-125.244
01:22:21.905,eb:33:2e:f9:57:b5,,0.118652,-0.080078,0.982422,,,-0.183105,,,,,,,-3.96057,-7.80029,-125.244
01:22:21.927,eb:33:2e:f9:57:b5,,0.118652,-0.07959,0.981934,,,-0.244141,,,,,,,-3.96057,-7.80029,-125.244
01:22:21.968,eb:33:2e:f9:57:b5,,0.118652,-0.080566,0.982422,,,-0.244141,,,,,,,-3.96057,-7.80029,-125.244
01:22:22.022,eb:33:2e:f9:57:b5,,0.119141,-0.080566,0.982422,,0.061035,-0.183105,,,,,,,-3.96057,-7.80029,-125.244
01:22:22.070,eb:33:2e:f9:57:b5,,0.118652,-0.080078,0.982422,,,-0.183105,,,,,,,-3.96057,-7.80029,-125.244
01:22:22.108,eb:33:2e:f9:57:b5,,0.118652,-0.07959,0.981934,,,-0.244141,,,,,,,-3.96057,-7.80029,-125.244
01:22:22.133,eb:33:2e:f9:57:b5,,0.119141,-0.07959,0.982422,,0.061035,-0.12207,,,,,,,-3.96057,-7.80029,-125.244
01:22:22.181,eb:33:2e:f9:57:b5,,0.118652,-0.07959,0.982422,,,-0.244141,,,,,,,-3.96057,-7.80029,-125.244
01:22:22.214,eb:33:2e:f9:57:b5,,0.118652,-0.080078,0.982422,-0.061035,,-0.244141,,,,,,,-3.96057,-7.80029,-125.244
01:22:22.260,eb:33:2e:f9:57:b5,,0.119141,-0.080566,0.982422,,,-0.183105,,,,,,,-3.96057,-7.80029,-125.244
01:22:22.291,eb:33:2e:f9:57:b5,,0.119141,-0.080078,0.982422,,,-0.244141,,,,,,,-3.96057,-7.80029,-125.244
01:22:22.338,eb:33:2e:f9:57:b5,,0.119141,-0.080566,0.982422,,,-0.12207,,,,,,,-3.96606,-7.80029,-125.244
01:22:22.386,eb:33:2e:f9:57:b5,,0.119141,-0.080566,0.982422,,,-0.183105,,,,,,,-3.96606,-7.80029,-125.244
01:22:22.421,eb:33:2e:f9:57:b5,,0.119141,-0.080078,0.982422,,,-0.244141,,,,,,,-3.96606,-7.80029,-125.244
01:22:22.465,eb:33:2e:f9:57:b5,,0.118652,-0.080566,0.982422,,,-0.183105,,,,,,,-3.96606,-7.80029,-125.244
01:22:22.497,eb:33:2e:f9:57:b5,,0.119141,-0.07959,0.981934,,,-0.244141,,,,,,,-3.96606,-7.80029,-125.244
01:22:22.549,eb:33:2e:f9:57:b5,,0.119141,-0.080566,0.982422,,,-0.244141,,,,,,,-3.96606,-7.80029,-125.244
01:22:22.592,eb:33:2e:f9:57:b5,,0.119629,-0.080078,0.981934,,,-0.183105,,,,,,,-3.96606,-7.80029,-125.244
01:22:22.624,eb:33:2e:f9:57:b5,,0.118652,-0.080078,0.981445,-0.061035,,-0.244141,,,,,,,-3.96606,-7.80029,-125.244
01:22:22.669,eb:33:2e:f9:57:b5,,0.119141,-0.080078,0.981934,,0.061035,-0.244141,,,,,,,-3.96606,-7.80029,-125.244
01:22:22.712,eb:33:2e:f9:57:b5,,0.118652,-0.080566,0.981445,,,-0.244141,,,,,,,-3.96606,-7.80029,-125.244
01:22:22.751,eb:33:2e:f9:57:b5,,0.119141,-0.080078,0.981934,,,-0.244141,,,,,,,-3.96606,-7.80029,-125.244
01:22:22.787,eb:33:2e:f9:57:b5,,0.118652,-0.080078,0.981934,,,-0.244141,,,,,,,-3.96606,-7.80029,-125.244
01:22:22.830,eb:33:2e:f9:57:b5,,0.118652,-0.07959,0.982422,,0.061035,-0.244141,,,,,,,-3.96606,-7.80029,-125.244
01:22:22.870,eb:33:2e:f9:57:b5,,0.118164,-0.080078,0.982422,-0.061035,,-0.244141,,,,,,,-3.96606,-7.80029,-125.244
01:22:22.901,eb:33:2e:f9:57:b5,,0.119629,-0.080078,0.982422,,,-0.244141,,,,,,,-3.96057,-7.80029,-125.244
01:22:22.942,eb:33:2e:f9:57:b5,,0.119141,-0.080078,0.981934,,,-0.244141,,,,,,,-3.96606,-7.80029,-125.244
01:22:22.973,eb:33:2e:f9:57:b5,,0.119629,-0.080078,0.982422,,,-0.183105,,,,,,,-3.96606,-7.80029,-125.244
01:22:23.020,eb:33:2e:f9:57:b5,,0.118652,-0.080566,0.981934,,0.061035,-0.244141,,,,,,,-3.96606,-7.80029,-125.244
01:22:23.068,eb:33:2e:f9:57:b5,,0.118652,-0.07959,0.981934,,,-0.183105,,,,,,,-3.96606,-7.80029,-125.244
01:22:23.106,eb:33:2e:f9:57:b5,,0.118652,-0.07959,0.981445,,,-0.244141,,,,,,,-3.96606,-7.80029,-125.244
01:22:23.152,eb:33:2e:f9:57:b5,,0.118164,-0.081055,0.98291,,,-0.244141,,,,,,,-3.96606,-7.80029,-125.244
01:22:23.195,eb:33:2e:f9:57:b5,,0.118652,-0.080566,0.982422,,,-0.183105,,,,,,,-3.96606,-7.80029,-125.244
01:22:23.234,eb:33:2e:f9:57:b5,,0.119141,-0.080078,0.982422,,0.061035,-0.183105,,,,,,,-3.96606,-7.80029,-125.244
01:22:23.259,eb:33:2e:f9:57:b5,,0.119141,-0.07959,0.982422,,,-0.183105,,,,,,,-3.96606,-7.80029,-125.244
01:22:23.316,eb:33:2e:f9:57:b5,,0.119141,-0.080078,0.982422,,,-0.183105,,,,,,,-3.96606,-7.80029,-125.244
01:22:23.354,eb:33:2e:f9:57:b5,,0.118652,-0.07959,0.981934,,,-0.244141,,,,,,,-3.96057,-7.80029,-125.244
01:22:23.389,eb:33:2e:f9:57:b5,,0.119629,-0.080078,0.981934,,,-0.183105,,,,,,,-3.96057,-7.80029,-125.244
01:22:23.438,eb:33:2e:f9:57:b5,,0.119141,-0.080566,0.982422,-0.061035,,-0.244141,,,,,,,-3.96057,-7.80029,-125.244
01:22:23.486,eb:33:2e:f9:57:b5,,0.119141,-0.080078,0.982422,,,-0.244141,,,,,,,-3.96057,-7.80029,-125.244
01:22:23.514,eb:33:2e:f9:57:b5,,0.119629,-0.07959,0.981934,,,-0.183105,,,,,,,-3.96057,-7.80029,-125.244
01:22:23.545,eb:33:2e:f9:57:b5,,0.119141,-0.080078,0.982422,,,-0.244141,,,,,,,-3.96057,-7.80029,-125.244
01:22:23.593,eb:33:2e:f9:57:b5,,0.119141,-0.080566,0.981934,,,-0.244141,,,,,,,-3.96057,-7.80029,-125.244
01:22:23.627,eb:33:2e:f9:57:b5,,0.118652,-0.080078,0.981445,,,-0.244141,,,,,,,-3.96057,-7.80029,-125.244
01:22:23.671,eb:33:2e:f9:57:b5,,0.119629,-0.080078,0.982422,,,-0.183105,,,,,,,-3.96057,-7.80029,-125.244
01:22:23.703,eb:33:2e:f9:57:b5,,0.118652,-0.07959,0.981934,-0.061035,,-0.183105,,,,,,,-3.96606,-7.80029,-125.244
01:22:23.751,eb:33:2e:f9:57:b5,,0.119141,-0.080566,0.981934,-0.061035,,-0.183105,,,,,,,-3.96606,-7.80029,-125.244
01:22:23.782,eb:33:2e:f9:57:b5,,0.118652,-0.07959,0.982422,,,-0.244141,,,,,,,-3.96606,-7.80029,-125.244
01:22:23.837,eb:33:2e:f9:57:b5,,0.118164,-0.080078,0.981934,-0.061035,,-0.244141,,,,,,,-3.96606,-7.80029,-125.244
01:22:23.861,eb:33:2e:f9:57:b5,,0.119141,-0.080078,0.98291,,,-0.244141,,,,,,,-3.96606,-7.80029,-125.244
01:22:23.909,eb:33:2e:f9:57:b5,,0.119629,-0.080566,0.981934,,,-0.244141,,,,,,,-3.96606,-7.80029,-125.244
01:22:23.956,eb:33:2e:f9:57:b5,,0.119141,-0.07959,0.981934,,,-0.244141,,,,,,,-3.96606,-7.80029,-125.244
01:22:24.006,eb:33:2e:f9:57:b5,,0.119141,-0.081543,0.982422,,,-0.183105,,,,,,,-3.96606,-7.80029,-125.244
01:22:24.035,eb:33:2e:f9:57:b5,,0.119141,-0.080566,0.981934,,,-0.244141,,,,,,,-3.96606,-7.80029,-125.244
01:22:24.071,eb:33:2e:f9:57:b5,,0.119141,-0.080078,0.982422,,,-0.244141,,,,,,,-3.96606,-7.80029,-125.244
01:22:24.113,eb:33:2e:f9:57:b5,,0.118652,-0.080078,0.981934,,,-0.244141,,,,,,,-3.96606,-7.80029,-125.244
01:22:24.176,eb:33:2e:f9:57:b5,,0.118652,-0.080078,0.981934,,,-0.183105,,,,,,,-3.96606,-7.80029,-125.244
01:22:24.205,eb:33:2e:f9:57:b5,,0.118652,-0.07959,0.98291,,,-0.244141,,,,,,,-3.96606,-7.80029,-125.244
01:22:24.250,eb:33:2e:f9:57:b5,,0.119141,-0.080078,0.982422,,,-0.244141,,,,,,,-3.96606,-7.80029,-125.244
01:22:24.287,eb:33:2e:f9:57:b5,,0.118652,-0.07959,0.981934,,,-0.244141,,,,,,,-3.96606,-7.80029,-125.244
01:22:24.326,eb:33:2e:f9:57:b5,,0.118652,-0.079102,0.982422,,,-0.244141,,,,,,,-3.96606,-7.80029,-125.244
01:22:24.369,eb:33:2e:f9:57:b5,,0.118652,-0.07959,0.983398,,,-0.183105,,,,,,,-3.96606,-7.80029,-125.244
01:22:24.398,eb:33:2e:f9:57:b5,,0.118652,-0.07959,0.982422,,,-0.183105,,,,,,,-3.96606,-7.80029,-125.244
01:22:24.430,eb:33:2e:f9:57:b5,,0.118164,-0.080566,0.982422,,,-0.244141,,,,,,,-3.96606,-7.80029,-125.244
01:22:24.480,eb:33:2e:f9:57:b5,,0.119629,-0.080566,0.981934,,,-0.183105,,,,,,,-3.96606,-7.80029,-125.244
01:22:24.529,eb:33:2e:f9:57:b5,,0.118652,-0.080078,0.981934,,,-0.244141,,,,,,,-3.96606,-7.80029,-125.244
01:22:24.572,eb:33:2e:f9:57:b5,,0.119141,-0.080078,0.98291,-0.061035,,-0.183105,,,,,,,-3.96606,-7.80029,-125.244
01:22:24.604,eb:33:2e:f9:57:b5,,0.118652,-0.080078,0.98291,,,-0.244141,,,,,,,-3.96606,-7.80029,-125.244
01:22:24.651,eb:33:2e:f9:57:b5,,0.118164,-0.080078,0.981445,-0.061035,,-0.244141,,,,,,,-3.96606,-7.80029,-125.244
01:22:24.683,eb:33:2e:f9:57:b5,,0.119141,-0.07959,0.982422,,,-0.244141,,,,,,,-3.96606,-7.80029,-125.244
01:22:24.715,eb:33:2e:f9:57:b5,,0.119141,-0.07959,0.982422,,,-0.244141,,,,,,,-3.96606,-7.80029,-125.244
01:22:24.772,eb:33:2e:f9:57:b5,,0.118652,-0.080078,0.981934,,,-0.183105,,,,,,,-3.96606,-7.80029,-125.244
01:22:24.787,eb:33:2e:f9:57:b5,,0.119629,-0.07959,0.981934,,,-0.183105,,,,,,,-3.96606,-7.80029,-125.244
01:22:24.826,eb:33:2e:f9:57:b5,,0.119141,-0.07959,0.982422,,,-0.244141,,,,,,,-3.96606,-7.80029,-125.244
01:22:24.873,eb:33:2e:f9:57:b5,,0.117676,-0.07959,0.981934,,,-0.244141,,,,,,,-3.96606,-7.80029,-125.244
01:22:24.906,eb:33:2e:f9:57:b5,,0.118652,-0.080078,0.982422,,,-0.183105,,,,,,,-3.96606,-7.80029,-125.244
01:22:24.954,eb:33:2e:f9:57:b5,,0.118652,-0.080078,0.981934,,,-0.183105,,,,,,,-3.96606,-7.80029,-125.244
01:22:24.984,eb:33:2e:f9:57:b5,,0.118164,-0.07959,0.982422,,,-0.244141,,,,,,,-3.96606,-7.80029,-125.244
01:22:25.031,eb:33:2e:f9:57:b5,,0.118652,-0.07959,0.981445,,,-0.244141,,,,,,,-3.96606,-7.80029,-125.244
01:22:25.064,eb:33:2e:f9:57:b5,,0.119629,-0.080566,0.981934,,,-0.244141,,,,,,,-3.96606,-7.80029,-125.25
01:22:25.112,eb:33:2e:f9:57:b5,,0.118652,-0.080566,0.981445,,,-0.183105,,,,,,,-3.96606,-7.80029,-125.25
01:22:25.160,eb:33:2e:f9:57:b5,,0.119141,-0.07959,0.982422,,,-0.244141,,,,,,,-3.96606,-7.80029,-125.25
01:22:25.204,eb:33:2e:f9:57:b5,,0.119141,-0.07959,0.981934,,,-0.244141,,,,,,,-3.96057,-7.80029,-125.25
01:22:25.238,eb:33:2e:f9:57:b5,,0.119141,-0.079102,0.982422,,,-0.244141,,,,,,,-3.96057,-7.80029,-125.25
01:22:25.277,eb:33:2e:f9:57:b5,,0.119141,-0.080078,0.982422,,,-0.183105,,,,,,,-3.96057,-7.80029,-125.25
01:22:25.319,eb:33:2e:f9:57:b5,,0.118652,-0.080566,0.981934,,,-0.183105,,,,,,,-3.96057,-7.80029,-125.25
01:22:25.366,eb:33:2e:f9:57:b5,,0.119141,-0.080566,0.981934,,,-0.244141,,,,,,,-3.96057,-7.80029,-125.25
01:22:25.398,eb:33:2e:f9:57:b5,,0.118652,-0.07959,0.982422,,0.061035,-0.244141,,,,,,,-3.96057,-7.80029,-125.25
01:22:25.445,eb:33:2e:f9:57:b5,,0.118652,-0.080566,0.982422,,,-0.183105,,,,,,,-3.96057,-7.80029,-125.25
01:22:25.487,eb:33:2e:f9:57:b5,,0.118652,-0.07959,0.982422,,,-0.183105,,,,,,,-3.96057,-7.80029,-125.25
01:22:25.525,eb:33:2e:f9:57:b5,,0.118652,-0.080566,0.981934,,,-0.183105,,,,,,,-3.96057,-7.80029,-125.25
01:22:25.573,eb:33:2e:f9:57:b5,,0.119141,-0.07959,0.982422,,,-0.244141,,,,,,,-3.96057,-7.80029,-125.25
01:22:25.604,eb:33:2e:f9:57:b5,,0.119629,-0.081055,0.981934,,,-0.244141,,,,,,,-3.96057,-7.80029,-125.25
01:22:25.651,eb:33:2e:f9:57:b5,,0.119141,-0.080566,0.981934,,,-0.244141,,,,,,,-3.96057,-7.80029,-125.25
01:22:25.695,eb:33:2e:f9:57:b5,,0.118652,-0.080078,0.98291,,,-0.183105,,,,,,,-3.96057,-7.80029,-125.25
01:22:25.731,eb:33:2e:f9:57:b5,,0.119141,-0.07959,0.982422,,,-0.244141,,,,,,,-3.96057,-7.80029,-125.25
01:22:25.778,eb:33:2e:f9:57:b5,,0.119141,-0.080566,0.981934,,0.061035,-0.244141,,,,,,,-3.96057,-7.80029,-125.25
01:22:25.827,eb:33:2e:f9:57:b5,,0.118652,-0.080078,0.98291,,,-0.183105,,,,,,,-3.96057,-7.80029,-125.25
01:22:25.855,eb:33:2e:f9:57:b5,,0.118652,-0.080078,0.982422,-0.061035,,-0.244141,,,,,,,-3.96057,-7.80029,-125.25
01:22:25.889,eb:33:2e:f9:57:b5,,0.118164,-0.07959,0.98291,,,-0.183105,,,,,,,-3.96057,-7.80029,-125.25
01:22:25.941,eb:33:2e:f9:57:b5,,0.119141,-0.07959,0.981934,,,-0.183105,,,,,,,-3.96057,-7.80029,-125.25
01:22:25.968,eb:33:2e:f9:57:b5,,0.118652,-0.080078,0.982422,,0.061035,-0.244141,,,,,,,-3.96057,-7.80029,-125.25
01:22:26.016,eb:33:2e:f9:57:b5,,0.119141,-0.080078,0.982422,,,-0.183105,,,,,,,-3.96057,-7.80029,-125.25
01:22:26.059,eb:33:2e:f9:57:b5,,0.119141,-0.080078,0.981934,,,-0.183105,,,,,,,-3.96057,-7.80029,-125.25
01:22:26.097,eb:33:2e:f9:57:b5,,0.118652,-0.07959,0.981934,,,-0.183105,,,,,,,-3.96057,-7.80029,-125.25
01:22:26.175,eb:33:2e:f9:57:b5,,0.119141,-0.080078,0.982422,,,-0.12207,,,,,,,-3.96057,-7.80029,-125.25
01:22:26.216,eb:33:2e:f9:57:b5,,0.119629,-0.080078,0.981934,,,-0.183105,,,,,,,-3.96057,-7.80029,-125.25
01:22:26.237,eb:33:2e:f9:57:b5,,0.119629,-0.080078,0.981934,,,-0.183105,,,,,,,-3.96057,-7.80029,-125.25
01:22:26.275,eb:33:2e:f9:57:b5,,0.118652,-0.07959,0.981934,,,-0.244141,,,,,,,-3.96057,-7.80029,-125.25
01:22:26.303,eb:33:2e:f9:57:b5,,0.119141,-0.080078,0.982422,,,-0.244141,,,,,,,-3.96057,-7.80029,-125.25
01:22:26.335,eb:33:2e:f9:57:b5,,0.119141,-0.080078,0.98291,,,-0.183105,,,,,,,-3.96057,-7.80029,-125.25
01:22:26.382,eb:33:2e:f9:57:b5,,0.118652,-0.080078,0.982422,,,-0.183105,,,,,,,-3.96057,-7.80029,-125.25
01:22:26.430,eb:33:2e:f9:57:b5,,0.118652,-0.080078,0.982422,,,-0.183105,,,,,,,-3.96057,-7.80029,-125.25
01:22:26.446,eb:33:2e:f9:57:b5,,0.119141,-0.07959,0.982422,,,-0.183105,,,,,,,-3.96057,-7.80029,-125.25
01:22:26.503,eb:33:2e:f9:57:b5,,0.119141,-0.080566,0.982422,,,-0.244141,,,,,,,-3.96057,-7.80029,-125.25
01:22:26.541,eb:33:2e:f9:57:b5,,0.118652,-0.080078,0.981934,,,-0.244141,,,,,,,-3.96057,-7.80029,-125.25
01:22:26.585,eb:33:2e:f9:57:b5,,0.119141,-0.080566,0.982422,,,-0.244141,,,,,,,-3.96057,-7.80029,-125.25
01:22:26.620,eb:33:2e:f9:57:b5,,0.119141,-0.07959,0.981934,,,-0.244141,,,,,,,-3.96057,-7.80029,-125.25
01:22:26.651,eb:33:2e:f9:57:b5,,0.118652,-0.07959,0.982422,,,-0.183105,,,,,,,-3.96057,-7.80029,-125.25
01:22:26.699,eb:33:2e:f9:57:b5,,0.118652,-0.080078,0.982422,,,-0.183105,,,,,,,-3.96057,-7.80579,-125.25
01:22:26.730,eb:33:2e:f9:57:b5,,0.118652,-0.07959,0.981934,,,-0.244141,,,,,,,-3.96057,-7.80579,-125.25
01:22:26.788,eb:33:2e:f9:57:b5,,0.118652,-0.080078,0.982422,,,-0.183105,,,,,,,-3.96057,-7.80579,-125.25
01:22:26.804,eb:33:2e:f9:57:b5,,0.118652,-0.07959,0.982422,,,-0.183105,,,,,,,-3.96057,-7.80579,-125.25
01:22:26.845,eb:33:2e:f9:57:b5,,0.119141,-0.080566,0.982422,,,-0.183105,,,,,,,-3.96057,-7.80579,-125.25
01:22:26.888,eb:33:2e:f9:57:b5,,0.119141,-0.080078,0.981934,,,-0.244141,,,,,,,-3.96057,-7.80579,-125.25
01:22:26.929,eb:33:2e:f9:57:b5,,0.118652,-0.079102,0.982422,,,-0.244141,,,,,,,-3.96057,-7.80579,-125.25
01:22:26.984,eb:33:2e:f9:57:b5,,0.119141,-0.080078,0.981934,,,-0.183105,,,,,,,-3.96057,-7.80579,-125.25
01:22:27.031,eb:33:2e:f9:57:b5,,0.119141,-0.07959,0.980957,,,-0.183105,,,,,,,-3.96057,-7.80579,-125.25
01:22:27.063,eb:33:2e:f9:57:b5,,0.118652,-0.07959,0.981934,,,-0.183105,,,,,,,-3.96057,-7.80579,-125.25
01:22:27.108,eb:33:2e:f9:57:b5,,0.119141,-0.080566,0.981445,,,-0.244141,,,,,,,-3.96057,-7.80579,-125.25
01:22:27.142,eb:33:2e:f9:57:b5,,0.118652,-0.080566,0.983398,,,-0.244141,,,,,,,-3.96057,-7.80579,-125.25
01:22:27.197,eb:33:2e:f9:57:b5,,0.118652,-0.080078,0.982422,,,-0.183105,,,,,,,-3.96057,-7.80579,-125.25
01:22:27.236,eb:33:2e:f9:57:b5,,0.118164,-0.07959,0.981934,,,-0.183105,,,,,,,-3.96057,-7.80579,-125.25
01:22:27.269,eb:33:2e:f9:57:b5,,0.119141,-0.080566,0.981445,-0.061035,0.061035,-0.183105,,,,,,,-3.96057,-7.80579,-125.25
01:22:27.314,eb:33:2e:f9:57:b5,,0.118652,-0.080078,0.982422,,,-0.183105,,,,,,,-3.96057,-7.80579,-125.25
01:22:27.358,eb:33:2e:f9:57:b5,,0.119141,-0.080078,0.981934,,,-0.183105,,,,,,,-3.96057,-7.80579,-125.25
01:22:27.385,eb:33:2e:f9:57:b5,,0.119629,-0.07959,0.982422,,0.061035,-0.183105,,,,,,,-3.96057,-7.80579,-125.25
01:22:27.429,eb:33:2e:f9:57:b5,,0.118652,-0.080078,0.982422,,0.061035,-0.183105,,,,,,,-3.96057,-7.80579,-125.25
01:22:27.474,eb:33:2e:f9:57:b5,,0.119141,-0.080078,0.981934,,,-0.183105,,,,,,,-3.96057,-7.80579,-125.25
01:22:27.507,eb:33:2e:f9:57:b5,,0.118652,-0.07959,0.981445,,,-0.244141,,,,,,,-3.96057,-7.80579,-125.25
01:22:27.554,eb:33:2e:f9:57:b5,,0.119141,-0.080078,0.981934,,,-0.183105,,,,,,,-3.96057,-7.80579,-125.25
01:22:27.601,eb:33:2e:f9:57:b5,,0.119141,-0.080566,0.982422,,,-0.244141,,,,,,,-3.96606,-7.80579,-125.25
01:22:27.622,eb:33:2e:f9:57:b5,,0.118652,-0.080566,0.982422,,,-0.244141,,,,,,,-3.96606,-7.80579,-125.25
01:22:27.666,eb:33:2e:f9:57:b5,,0.119141,-0.080078,0.982422,,,-0.244141,,,,,,,-3.96606,-7.80579,-125.25
01:22:27.713,eb:33:2e:f9:57:b5,,0.118652,-0.07959,0.981934,,0.061035,-0.183105,,,,,,,-3.96606,-7.80579,-125.25
01:22:27.745,eb:33:2e:f9:57:b5,,0.119141,-0.080078,0.981934,,,-0.183105,,,,,,,-3.96606,-7.80579,-125.25
01:22:27.793,eb:33:2e:f9:57:b5,,0.118652,-0.080078,0.981934,,,-0.183105,,,,,,,-3.96606,-7.80579,-125.25
01:22:27.824,eb:33:2e:f9:57:b5,,0.118652,-0.080078,0.982422,-0.061035,,-0.183105,,,,,,,-3.96606,-7.80579,-125.25
01:22:27.857,eb:33:2e:f9:57:b5,,0.118164,-0.080078,0.98291,,,-0.183105,,,,,,,-3.96606,-7.80579,-125.25
01:22:27.907,eb:33:2e:f9:57:b5,,0.119629,-0.07959,0.982422,,,-0.183105,,,,,,,-3.96606,-7.80579,-125.25
01:22:27.937,eb:33:2e:f9:57:b5,,0.119629,-0.07959,0.981934,,,-0.183105,,,,,,,-3.96057,-7.80579,-125.25
01:22:27.983,eb:33:2e:f9:57:b5,,0.118652,-0.07959,0.982422,,,-0.183105,,,,,,,-3.96057,-7.80579,-125.25
01:22:28.031,eb:33:2e:f9:57:b5,,0.118652,-0.079102,0.982422,,,-0.183105,,,,,,,-3.96057,-7.80579,-125.25
01:22:28.070,eb:33:2e:f9:57:b5,,0.119629,-0.080566,0.982422,,,-0.183105,,,,,,,-3.96057,-7.80579,-125.25
01:22:28.110,eb:33:2e:f9:57:b5,,0.118652,-0.07959,0.981934,,,-0.244141,,,,,,,-3.96057,-7.80579,-125.25
01:22:28.142,eb:33:2e:f9:57:b5,,0.118164,-0.07959,0.982422,,,-0.244141,,,,,,,-3.96057,-7.80579,-125.25
01:22:28.191,eb:33:2e:f9:57:b5,,0.119141,-0.07959,0.981934,,,-0.183105,,,,,,,-3.96057,-7.80579,-125.25
01:22:28.227,eb:33:2e:f9:57:b5,,0.119141,-0.080078,0.981934,,,-0.244141,,,,,,,-3.96057,-7.80579,-125.25
01:22:28.271,eb:33:2e:f9:57:b5,,0.119629,-0.080078,0.981445,-0.061035,0.061035,-0.244141,,,,,,,-3.96057,-7.80579,-125.25
01:22:28.347,eb:33:2e:f9:57:b5,,0.118652,-0.07959,0.981934,,,-0.183105,,,,,,,-3.96057,-7.80579,-125.25
01:22:28.382,eb:33:2e:f9:57:b5,,0.118652,-0.080566,0.980957,,0.061035,-0.183105,,,,,,,-3.96057,-7.80579,-125.25
01:22:28.411,eb:33:2e:f9:57:b5,,0.118652,-0.080078,0.981445,,,-0.244141,,,,,,,-3.96057,-7.80579,-125.25
01:22:28.445,eb:33:2e:f9:57:b5,,0.119629,-0.080566,0.981934,,,-0.183105,,,,,,,-3.96057,-7.80579,-125.25
01:22:28.495,eb:33:2e:f9:57:b5,,0.119141,-0.080078,0.98291,,,-0.183105,,,,,,,-3.96057,-7.80579,-125.25
01:22:28.524,eb:33:2e:f9:57:b5,,0.119141,-0.07959,0.982422,,,-0.244141,,,,,,,-3.96057,-7.80579,-125.25
01:22:28.556,eb:33:2e:f9:57:b5,,0.119141,-0.07959,0.982422,,,-0.183105,,,,,,,-3.96057,-7.80579,-125.25
01:22:28.604,eb:33:2e:f9:57:b5,,0.118652,-0.080078,0.982422,,,-0.183105,,,,,,,-3.96057,-7.80579,-125.25
01:22:28.652,eb:33:2e:f9:57:b5,,0.119141,-0.080078,0.981934,,,-0.12207,,,,,,,-3.96057,-7.80579,-125.25
01:22:28.684,eb:33:2e:f9:57:b5,,0.118652,-0.07959,0.98291,,,-0.183105,,,,,,,-3.96057,-7.80579,-125.25
01:22:28.732,eb:33:2e:f9:57:b5,,0.119629,-0.080078,0.982422,,,-0.183105,,,,,,,-3.96057,-7.80579,-125.25
01:22:28.764,eb:33:2e:f9:57:b5,,0.119629,-0.080566,0.980957,,,-0.183105,,,,,,,-3.96057,-7.80579,-125.25
01:22:28.811,eb:33:2e:f9:57:b5,,0.119629,-0.080078,0.982422,-0.061035,,-0.12207,,,,,,,-3.96057,-7.80579,-125.25
01:22:28.843,eb:33:2e:f9:57:b5,,0.119141,-0.07959,0.981934,,,-0.244141,,,,,,,-3.96057,-7.80579,-125.25
01:22:28.875,eb:33:2e:f9:57:b5,,0.119141,-0.079102,0.982422,,,-0.183105,,,,,,,-3.96057,-7.80579,-125.25
01:22:28.923,eb:33:2e:f9:57:b5,,0.118652,-0.080566,0.982422,,,-0.244141,,,,,,,-3.96057,-7.80579,-125.25
01:22:28.954,eb:33:2e:f9:57:b5,,0.119629,-0.080078,0.981934,,,-0.183105,,,,,,,-3.96057,-7.80579,-125.25
01:22:29.004,eb:33:2e:f9:57:b5,,0.118652,-0.07959,0.982422,,,-0.183105,,,,,,,-3.96057,-7.80579,-125.25
01:22:29.044,eb:33:2e:f9:57:b5,,0.118652,-0.080078,0.981934,-0.061035,,-0.183105,,,,,,,-3.96057,-7.80579,-125.25
01:22:29.081,eb:33:2e:f9:57:b5,,0.118652,-0.07959,0.981934,,,-0.244141,,,,,,,-3.96057,-7.80579,-125.25
01:22:29.128,eb:33:2e:f9:57:b5,,0.119141,-0.07959,0.982422,,,-0.183105,,,,,,,-3.96057,-7.80579,-125.25
01:22:29.164,eb:33:2e:f9:57:b5,,0.118652,-0.080566,0.982422,,,-0.183105,,,,,,,-3.96057,-7.80579,-125.25
01:22:29.205,eb:33:2e:f9:57:b5,,0.118652,-0.07959,0.981934,,,-0.183105,,,,,,,-3.96057,-7.80579,-125.25
01:22:29.240,eb:33:2e:f9:57:b5,,0.119141,-0.080566,0.982422,,0.061035,-0.183105,,,,,,,-3.96057,-7.80579,-125.25
01:22:29.272,eb:33:2e:f9:57:b5,,0.118652,-0.080566,0.982422,,,-0.183105,,,,,,,-3.96057,-7.80579,-125.25
01:22:29.320,eb:33:2e:f9:57:b5,,0.119629,-0.080566,0.982422,,,-0.183105,,,,,,,-3.96057,-7.80579,-125.25
01:22:29.383,eb:33:2e:f9:57:b5,,0.118164,-0.080078,0.981445,-0.061035,,-0.183105,,,,,,,-3.96057,-7.80579,-125.25
01:22:29.398,eb:33:2e:f9:57:b5,,0.119141,-0.079102,0.981934,,,-0.183105,,,,,,,-3.96057,-7.80579,-125.25
01:22:29.453,eb:33:2e:f9:57:b5,,0.119141,-0.080078,0.982422,,,-0.183105,,,,,,,-3.96057,-7.80579,-125.25
01:22:29.477,eb:33:2e:f9:57:b5,,0.119141,-0.07959,0.982422,,,-0.183105,,,,,,,-3.96057,-7.80579,-125.25
01:22:29.524,eb:33:2e:f9:57:b5,,0.119141,-0.07959,0.982422,,,-0.183105,,,,,,,-3.96057,-7.80579,-125.25
01:22:29.572,eb:33:2e:f9:57:b5,,0.118652,-0.080078,0.98291,-0.061035,,-0.305176,,,,,,,-3.96057,-7.80579,-125.25
01:22:29.604,eb:33:2e:f9:57:b5,,0.119141,-0.07959,0.982422,-0.061035,,-0.244141,,,,,,,-3.96057,-7.80579,-125.25
01:22:29.652,eb:33:2e:f9:57:b5,,0.119141,-0.080078,0.982422,,,-0.183105,,,,,,,-3.96057,-7.80579,-125.25
01:22:29.684,eb:33:2e:f9:57:b5,,0.118652,-0.080078,0.981934,,,-0.244141,,,,,,,-3.96057,-7.80579,-125.25
01:22:29.732,eb:33:2e:f9:57:b5,,0.118164,-0.080078,0.982422,,0.061035,-0.183105,,,,,,,-3.96057,-7.80579,-125.25
01:22:29.764,eb:33:2e:f9:57:b5,,0.119141,-0.080078,0.982422,,,-0.183105,,,,,,,-3.96057,-7.80579,-125.25
01:22:29.811,eb:33:2e:f9:57:b5,,0.118164,-0.080078,0.981934,,0.061035,-0.183105,,,,,,,-3.96057,-7.80579,-125.25
01:22:29.843,eb:33:2e:f9:57:b5,,0.118164,-0.079102,0.983398,,,-0.244141,,,,,,,-3.96057,-7.80579,-125.25
01:22:29.894,eb:33:2e:f9:57:b5,,0.119141,-0.080566,0.982422,,,-0.183105,,,,,,,-3.96057,-7.80579,-125.25
01:22:29.941,eb:33:2e:f9:57:b5,,0.119141,-0.07959,0.982422,,,-0.244141,,,,,,,-3.96057,-7.80579,-125.25
01:22:29.969,eb:33:2e:f9:57:b5,,0.119141,-0.080078,0.981934,,,-0.244141,,,,,,,-3.96057,-7.80579,-125.25
01:22:30.018,eb:33:2e:f9:57:b5,,0.118652,-0.080078,0.981934,,,-0.244141,,,,,,,-3.96057,-7.80579,-125.25
01:22:30.036,eb:33:2e:f9:57:b5,,0.119141,-0.07959,0.982422,,,-0.183105,,,,,,,-3.96057,-7.80579,-125.25
01:22:30.066,eb:33:2e:f9:57:b5,,0.119141,-0.079102,0.981934,,,-0.183105,,,,,,,-3.96057,-7.80579,-125.25
01:22:30.130,eb:33:2e:f9:57:b5,,0.118652,-0.07959,0.982422,,,-0.244141,,,,,,,-3.96057,-7.80579,-125.25
01:22:30.161,eb:33:2e:f9:57:b5,,0.119629,-0.079102,0.981934,,,-0.244141,,,,,,,-3.96057,-7.80579,-125.25
01:22:30.177,eb:33:2e:f9:57:b5,,0.118652,-0.080566,0.982422,,,-0.244141,,,,,,,-3.96057,-7.80579,-125.25
01:22:30.225,eb:33:2e:f9:57:b5,,0.118652,-0.07959,0.98291,-0.061035,,-0.183105,,,,,,,-3.96057,-7.80579,-125.25
01:22:30.257,eb:33:2e:f9:57:b5,,0.119141,-0.080078,0.982422,,,-0.244141,,,,,,,-3.96057,-7.80579,-125.25
01:22:30.308,eb:33:2e:f9:57:b5,,0.119141,-0.080078,0.982422,,,-0.183105,,,,,,,-3.96057,-7.80579,-125.25
01:22:30.337,eb:33:2e:f9:57:b5,,0.118652,-0.080078,0.982422,,,-0.183105,,,,,,,-3.96057,-7.80579,-125.25
01:22:30.369,eb:33:2e:f9:57:b5,,0.118652,-0.080566,0.982422,,,-0.244141,,,,,,,-3.96057,-7.80579,-125.25
01:22:30.401,eb:33:2e:f9:57:b5,,0.118164,-0.080078,0.98291,,,-0.183105,,,,,,,-3.96057,-7.80579,-125.25
01:22:30.465,eb:33:2e:f9:57:b5,,0.118652,-0.080078,0.981934,,,-0.244141,,,,,,,-3.96057,-7.80029,-125.25
01:22:30.496,eb:33:2e:f9:57:b5,,0.119141,-0.080566,0.981934,,,-0.244141,,,,,,,-3.96057,-7.80029,-125.25
01:22:30.528,eb:33:2e:f9:57:b5,,0.118652,-0.080078,0.981445,,,-0.244141,,,,,,,-3.96057,-7.80029,-125.25
01:22:30.576,eb:33:2e:f9:57:b5,,0.119141,-0.07959,0.981934,,,-0.183105,,,,,,,-3.96057,-7.80029,-125.25
01:22:30.614,eb:33:2e:f9:57:b5,,0.118652,-0.080078,0.981934,,,-0.183105,,,,,,,-3.96057,-7.80029,-125.25
01:22:30.644,eb:33:2e:f9:57:b5,,0.119629,-0.080566,0.981445,,,-0.183105,,,,,,,-3.96057,-7.80029,-125.25
01:22:30.705,eb:33:2e:f9:57:b5,,0.119141,-0.07959,0.981445,,0.061035,-0.244141,,,,,,,-3.96057,-7.80579,-125.25
01:22:30.738,eb:33:2e:f9:57:b5,,0.119141,-0.080078,0.981445,,,-0.183105,,,,,,,-3.96057,-7.80579,-125.25
01:22:30.767,eb:33:2e:f9:57:b5,,0.119141,-0.07959,0.981934,,,-0.183105,,,,,,,-3.96057,-7.80579,-125.25
01:22:30.814,eb:33:2e:f9:57:b5,,0.119629,-0.07959,0.981934,,0.061035,-0.244141,,,,,,,-3.96057,-7.80579,-125.25
01:22:30.847,eb:33:2e:f9:57:b5,,0.118652,-0.080078,0.982422,,0.061035,-0.244141,,,,,,,-3.96057,-7.80579,-125.25
01:22:30.878,eb:33:2e:f9:57:b5,,0.117676,-0.080078,0.981934,,,-0.183105,,,,,,,-3.96057,-7.80579,-125.25
01:22:30.943,eb:33:2e:f9:57:b5,,0.119141,-0.080566,0.981934,,,-0.244141,,,,,,,-3.96057,-7.80579,-125.25
01:22:30.973,eb:33:2e:f9:57:b5,,0.118652,-0.079102,0.981934,,,-0.244141,,,,,,,-3.96057,-7.80579,-125.25
01:22:31.037,eb:33:2e:f9:57:b5,,0.119629,-0.080566,0.981445,,,-0.183105,,,,,,,-3.96057,-7.80579,-125.25
01:22:31.069,eb:33:2e:f9:57:b5,,0.118652,-0.07959,0.981445,-0.061035,,-0.244141,,,,,,,-3.96057,-7.80579,-125.25
01:22:31.085,eb:33:2e:f9:57:b5,,0.119141,-0.080078,0.981934,,,-0.183105,,,,,,,-3.96057,-7.80579,-125.25
01:22:31.149,eb:33:2e:f9:57:b5,,0.119141,-0.080566,0.981934,,0.061035,-0.183105,,,,,,,-3.96057,-7.80579,-125.25
01:22:31.181,eb:33:2e:f9:57:b5,,0.119141,-0.080566,0.981934,,,-0.183105,,,,,,,-3.96057,-7.80579,-125.25
01:22:31.213,eb:33:2e:f9:57:b5,,0.118164,-0.07959,0.981934,-0.061035,0.061035,-0.305176,,,,,,,-3.96057,-7.80579,-125.25
01:22:31.277,eb:33:2e:f9:57:b5,,0.118652,-0.080078,0.982422,,,-0.183105,,,,,,,-3.96057,-7.80579,-125.25
01:22:31.308,eb:33:2e:f9:57:b5,,0.118652,-0.080078,0.981934,,,-0.244141,,,,,,,-3.96057,-7.80579,-125.25
01:22:31.340,eb:33:2e:f9:57:b5,,0.118164,-0.080078,0.981445,-0.061035,0.061035,-0.183105,,,,,,,-3.96057,-7.80029,-125.25
01:22:31.387,eb:33:2e:f9:57:b5,,0.118652,-0.080566,0.981934,-0.061035,,-0.183105,,,,,,,-3.96057,-7.80029,-125.25
01:22:31.420,eb:33:2e:f9:57:b5,,0.119141,-0.080078,0.981934,,0.061035,-0.244141,,,,,,,-3.96057,-7.80029,-125.25
01:22:31.457,eb:33:2e:f9:57:b5,,0.119141,-0.07959,0.981934,,,-0.183105,,,,,,,-3.96057,-7.80029,-125.25
01:22:31.514,eb:33:2e:f9:57:b5,,0.118652,-0.080078,0.982422,,,-0.244141,,,,,,,-3.96057,-7.80029,-125.25
01:22:31.546,eb:33:2e:f9:57:b5,,0.118652,-0.080078,0.982422,,,-0.244141,,,,,,,-3.96057,-7.80029,-125.25
01:22:31.578,eb:33:2e:f9:57:b5,,0.119141,-0.080078,0.982422,,,-0.244141,,,,,,,-3.96057,-7.80029,-125.25
01:22:31.628,eb:33:2e:f9:57:b5,,0.118652,-0.080078,0.981445,-0.061035,,-0.244141,,,,,,,-3.96057,-7.80029,-125.25
01:22:31.656,eb:33:2e:f9:57:b5,,0.118652,-0.080078,0.982422,,,-0.183105,,,,,,,-3.96057,-7.80029,-125.25
01:22:31.689,eb:33:2e:f9:57:b5,,0.119141,-0.07959,0.982422,,,-0.183105,,,,,,,-3.96057,-7.80029,-125.25
01:22:31.783,eb:33:2e:f9:57:b5,,0.118652,-0.080078,0.982422,-0.061035,,-0.244141,,,,,,,-3.96057,-7.80029,-125.25
01:22:31.819,eb:33:2e:f9:57:b5,,0.119141,-0.07959,0.98291,,0.061035,-0.183105,,,,,,,-3.96057,-7.80029,-125.25
01:22:31.831,eb:33:2e:f9:57:b5,,0.119141,-0.07959,0.981445,,,-0.183105,,,,,,,-3.96057,-7.80029,-125.25
01:22:31.899,eb:33:2e:f9:57:b5,,0.118652,-0.080566,0.981445,,,-0.183105,,,,,,,-3.96057,-7.80029,-125.25
01:22:31.943,eb:33:2e:f9:57:b5,,0.118652,-0.080078,0.981934,,,-0.244141,,,,,,,-3.96057,-7.80029,-125.25
01:22:31.958,eb:33:2e:f9:57:b5,,0.119141,-0.080078,0.981934,,,-0.183105,,,,,,,-3.96057,-7.80029,-125.25
01:22:32.024,eb:33:2e:f9:57:b5,,0.119629,-0.079102,0.982422,,0.061035,-0.183105,,,,,,,-3.96057,-7.80029,-125.25
01:22:32.054,eb:33:2e:f9:57:b5,,0.118652,-0.080078,0.982422,,,-0.183105,,,,,,,-3.96057,-7.80029,-125.25
01:22:32.070,eb:33:2e:f9:57:b5,,0.119141,-0.080078,0.982422,,,-0.244141,,,,,,,-3.96057,-7.80029,-125.25
01:22:32.118,eb:33:2e:f9:57:b5,,0.118652,-0.07959,0.982422,-0.061035,,-0.244141,,,,,,,-3.96057,-7.80029,-125.25
01:22:32.150,eb:33:2e:f9:57:b5,,0.119141,-0.080566,0.981934,,,-0.244141,,,,,,,-3.96057,-7.80029,-125.25
01:22:32.166,eb:33:2e:f9:57:b5,,0.119141,-0.07959,0.982422,-0.061035,,-0.183105,,,,,,,-3.96057,-7.80029,-125.25
01:22:32.230,eb:33:2e:f9:57:b5,,0.119141,-0.080078,0.981934,,,-0.183105,,,,,,,-3.96057,-7.80579,-125.25
01:22:32.262,eb:33:2e:f9:57:b5,,0.119141,-0.07959,0.981445,,,-0.183105,,,,,,,-3.96057,-7.80579,-125.25
01:22:32.293,eb:33:2e:f9:57:b5,,0.119141,-0.079102,0.982422,,,-0.244141,,,,,,,-3.96057,-7.80579,-125.25
01:22:32.359,eb:33:2e:f9:57:b5,,0.119141,-0.080566,0.982422,,,-0.183105,,,,,,,-3.96057,-7.80579,-125.25
01:22:32.390,eb:33:2e:f9:57:b5,,0.118652,-0.07959,0.982422,,,-0.244141,,,,,,,-3.96057,-7.80579,-125.25
01:22:32.449,eb:33:2e:f9:57:b5,,0.119141,-0.080566,0.982422,,,-0.183105,,,,,,,-3.96057,-7.80579,-125.25
01:22:32.478,eb:33:2e:f9:57:b5,,0.119141,-0.07959,0.982422,,,-0.244141,,,,,,,-3.96057,-7.80579,-125.25
01:22:32.509,eb:33:2e:f9:57:b5,,0.118652,-0.080078,0.982422,,,-0.244141,,,,,,,-3.96057,-7.80579,-125.25
01:22:32.570,eb:33:2e:f9:57:b5,,0.118652,-0.07959,0.982422,,,-0.183105,,,,,,,-3.96057,-7.80579,-125.25
01:22:32.596,eb:33:2e:f9:57:b5,,0.118652,-0.080078,0.982422,,,-0.183105,,,,,,,-3.96057,-7.80579,-125.25
01:22:32.627,eb:33:2e:f9:57:b5,,0.119629,-0.080566,0.982422,,,-0.183105,,,,,,,-3.96057,-7.80579,-125.25
01:22:32.692,eb:33:2e:f9:57:b5,,0.119141,-0.080078,0.982422,,,-0.244141,,,,,,,-3.96057,-7.80579,-125.25
01:22:32.715,eb:33:2e:f9:57:b5,,0.118164,-0.080078,0.981934,,,-0.244141,,,,,,,-3.96057,-7.80579,-125.25
01:22:32.748,eb:33:2e:f9:57:b5,,0.118652,-0.080078,0.982422,,,-0.183105,,,,,,,-3.96057,-7.80579,-125.25
01:22:32.806,eb:33:2e:f9:57:b5,,0.119629,-0.07959,0.982422,,,-0.183105,,,,,,,-3.96057,-7.80579,-125.25
01:22:32.829,eb:33:2e:f9:57:b5,,0.118652,-0.080078,0.98291,,,-0.183105,,,,,,,-3.96057,-7.80579,-125.25
01:22:32.861,eb:33:2e:f9:57:b5,,0.118652,-0.080078,0.982422,,,-0.183105,,,,,,,-3.96057,-7.80579,-125.25
01:22:32.928,eb:33:2e:f9:57:b5,,0.119141,-0.07959,0.981934,,,-0.244141,,,,,,,-3.96057,-7.80579,-125.25
01:22:32.961,eb:33:2e:f9:57:b5,,0.119141,-0.080566,0.981934,,,-0.183105,,,,,,,-3.96057,-7.80579,-125.25
01:22:32.979,eb:33:2e:f9:57:b5,,0.119629,-0.080078,0.981934,-0.061035,,-0.183105,,,,,,,-3.96057,-7.80579,-125.25
01:22:33.044,eb:33:2e:f9:57:b5,,0.118652,-0.080566,0.982422,,,-0.183105,,,,,,,-3.96057,-7.80579,-125.25
01:22:33.078,eb:33:2e:f9:57:b5,,0.118652,-0.07959,0.98291,,,-0.183105,,,,,,,-3.96057,-7.80579,-125.25
01:22:33.104,eb:33:2e:f9:57:b5,,0.118652,-0.07959,0.981934,,,-0.244141,,,,,,,-3.96057,-7.80579,-125.25
01:22:33.161,eb:33:2e:f9:57:b5,,0.119141,-0.080078,0.981934,,,-0.183105,,,,,,,-3.96057,-7.80579,-125.25
01:22:33.194,eb:33:2e:f9:57:b5,,0.119141,-0.07959,0.982422,,,-0.183105,,,,,,,-3.96057,-7.80579,-125.25
01:22:33.228,eb:33:2e:f9:57:b5,,0.118652,-0.080078,0.981934,,,-0.244141,,,,,,,-3.96057,-7.80579,-125.25
01:22:33.288,eb:33:2e:f9:57:b5,,0.119629,-0.07959,0.983398,-0.061035,,-0.183105,,,,,,,-3.96057,-7.80579,-125.25
01:22:33.319,eb:33:2e:f9:57:b5,,0.118652,-0.080078,0.982422,,,-0.183105,,,,,,,-3.96057,-7.80579,-125.25
01:22:33.342,eb:33:2e:f9:57:b5,,0.118652,-0.080078,0.982422,,,-0.183105,,,,,,,-3.96057,-7.80579,-125.25
01:22:33.406,eb:33:2e:f9:57:b5,,0.118652,-0.07959,0.981934,,0.061035,-0.183105,,,,,,,-3.96057,-7.80579,-125.25
01:22:33.438,eb:33:2e:f9:57:b5,,0.118652,-0.080078,0.981934,,0.061035,-0.183105,,,,,,,-3.96057,-7.80579,-125.25
01:22:33.486,eb:33:2e:f9:57:b5,,0.118652,-0.080078,0.982422,,,-0.244141,,,,,,,-3.96057,-7.80579,-125.25
01:22:33.554,eb:33:2e:f9:57:b5,,0.118652,-0.080078,0.981934,,,-0.244141,,,,,,,-3.96057,-7.80029,-125.25
01:22:33.587,eb:33:2e:f9:57:b5,,0.118652,-0.079102,0.981934,,0.061035,-0.183105,,,,,,,-3.96057,-7.80029,-125.25
01:22:34.000,eb:33:2e:f9:57:b5,,0.118652,-0.07959,0.98291,,,-0.183105,,,,,,,-3.96057,-7.80029,-125.25
01:22:34.027,eb:33:2e:f9:57:b5,,0.118164,-0.07959,0.981445,,,-0.183105,,,,,,,-3.96057,-7.80029,-125.25
01:22:34.045,eb:33:2e:f9:57:b5,,0.119141,-0.07959,0.982422,,,-0.244141,,,,,,,-3.96057,-7.80029,-125.25
01:22:34.059,eb:33:2e:f9:57:b5,,0.118652,-0.080078,0.981934,,0.061035,-0.244141,,,,,,,-3.96057,-7.80029,-125.25
01:22:34.074,eb:33:2e:f9:57:b5,,0.118652,-0.080078,0.981934,,,-0.244141,,,,,,,-3.96057,-7.80029,-125.25
01:22:34.096,eb:33:2e:f9:57:b5,,0.119629,-0.079102,0.982422,,,-0.183105,,,,,,,-3.96057,-7.80029,-125.25
01:22:34.125,eb:33:2e:f9:57:b5,,0.118652,-0.07959,0.981934,,0.061035,-0.183105,,,,,,,-3.96057,-7.80029,-125.25
01:22:34.138,eb:33:2e:f9:57:b5,,0.119141,-0.080078,0.982422,,,-0.244141,,,,,,,-3.96057,-7.80029,-125.25
01:22:34.153,eb:33:2e:f9:57:b5,,0.119141,-0.080078,0.981445,,0.061035,-0.183105,,,,,,,-3.96057,-7.80029,-125.25
01:22:34.185,eb:33:2e:f9:57:b5,,0.118652,-0.07959,0.982422,-0.061035,,-0.183105,,,,,,,-3.96057,-7.80029,-125.25
01:22:34.201,eb:33:2e:f9:57:b5,,0.118652,-0.079102,0.982422,,,-0.244141,,,,,,,-3.96057,-7.80029,-125.25
01:22:34.723,eb:33:2e:f9:57:b5,,0.119141,-0.081055,0.982422,,0.061035,-0.244141,,,,,,,-3.96057,-7.80029,-125.25
01:22:34.745,eb:33:2e:f9:57:b5,,0.119141,-0.080566,0.981934,,,-0.183105,,,,,,,-3.96057,-7.80029,-125.25
01:22:34.766,eb:33:2e:f9:57:b5,,0.119141,-0.080078,0.981934,,,-0.183105,,,,,,,-3.96057,-7.80029,-125.25
01:22:34.785,eb:33:2e:f9:57:b5,,0.119141,-0.080566,0.981934,-0.061035,,-0.244141,,,,,,,-3.96057,-7.80029,-125.25
01:22:34.805,eb:33:2e:f9:57:b5,,0.118652,-0.079102,0.981445,,0.061035,-0.244141,,,,,,,-3.96057,-7.80029,-125.25
01:22:34.829,eb:33:2e:f9:57:b5,,0.119629,-0.07959,0.982422,,,-0.244141,,,,,,,-3.96057,-7.80029,-125.25
01:22:34.855,eb:33:2e:f9:57:b5,,0.119141,-0.080566,0.982422,-0.061035,,-0.244141,,,,,,,-3.96057,-7.80029,-125.25
01:22:34.875,eb:33:2e:f9:57:b5,,0.119141,-0.080566,0.982422,-0.061035,,-0.244141,,,,,,,-3.96057,-7.80029,-125.25
01:22:34.895,eb:33:2e:f9:57:b5,,0.119629,-0.080078,0.981934,,,-0.183105,,,,,,,-3.96057,-7.80029,-125.25
01:22:34.914,eb:33:2e:f9:57:b5,,0.118652,-0.080566,0.982422,,,-0.183105,,,,,,,-3.96057,-7.80029,-125.25
01:22:34.932,eb:33:2e:f9:57:b5,,0.118652,-0.080078,0.981934,,,-0.244141,,,,,,,-3.96057,-7.80029,-125.25
01:22:34.948,eb:33:2e:f9:57:b5,,0.119141,-0.080566,0.98291,,,-0.244141,,,,,,,-3.96057,-7.80029,-125.25
01:22:34.969,eb:33:2e:f9:57:b5,,0.118652,-0.07959,0.980957,,0.061035,-0.183105,,,,,,,-3.96057,-7.80029,-125.25
01:22:34.988,eb:33:2e:f9:57:b5,,0.118652,-0.080078,0.982422,,,-0.183105,,,,,,,-3.96057,-7.80579,-125.25
01:22:35.006,eb:33:2e:f9:57:b5,,0.119141,-0.07959,0.982422,,,-0.183105,,,,,,,-3.96057,-7.80579,-125.25
01:22:35.027,eb:33:2e:f9:57:b5,,0.118164,-0.080566,0.982422,,,-0.244141,,,,,,,-3.96057,-7.80579,-125.25
01:22:35.044,eb:33:2e:f9:57:b5,,0.119141,-0.080078,0.981934,,,-0.183105,,,,,,,-3.96057,-7.80579,-125.25
01:22:35.064,eb:33:2e:f9:57:b5,,0.119141,-0.080566,0.981934,,0.061035,-0.183105,,,,,,,-3.96057,-7.80579,-125.25
01:22:35.079,eb:33:2e:f9:57:b5,,0.119629,-0.080078,0.982422,,,-0.183105,,,,,,,-3.96057,-7.80579,-125.25
01:22:35.099,eb:33:2e:f9:57:b5,,0.119141,-0.080566,0.981934,-0.061035,,-0.183105,,,,,,,-3.96057,-7.80579,-125.25
01:22:35.129,eb:33:2e:f9:57:b5,,0.119141,-0.080078,0.982422,,,-0.183105,,,,,,,-3.96057,-7.80579,-125.25
01:22:35.145,eb:33:2e:f9:57:b5,,0.119141,-0.080078,0.981934,,,-0.183105,,,,,,,-3.96057,-7.80579,-125.25
01:22:35.165,eb:33:2e:f9:57:b5,,0.119141,-0.080078,0.982422,,,-0.183105,,,,,,,-3.96057,-7.80579,-125.25
01:22:35.174,eb:33:2e:f9:57:b5,,0.119141,-0.07959,0.981934,,,-0.244141,,,,,,,-3.96057,-7.80579,-125.25
01:22:35.203,eb:33:2e:f9:57:b5,,0.119141,-0.079102,0.981934,,,-0.183105,,,,,,,-3.96057,-7.80579,-125.25
01:22:35.229,eb:33:2e:f9:57:b5,,0.118164,-0.07959,0.981934,-0.061035,0.061035,-0.183105,,,,,,,-3.96057,-7.80579,-125.25
01:22:35.249,eb:33:2e:f9:57:b5,,0.118652,-0.07959,0.982422,-0.061035,,-0.183105,,,,,,,-3.96057,-7.80579,-125.25
01:22:35.264,eb:33:2e:f9:57:b5,,0.119141,-0.07959,0.981445,,,-0.183105,,,,,,,-3.96057,-7.80579,-125.25
01:22:35.284,eb:33:2e:f9:57:b5,,0.118652,-0.07959,0.98291,,,-0.183105,,,,,,,-3.96057,-7.80579,-125.25
01:22:35.305,eb:33:2e:f9:57:b5,,0.119141,-0.080566,0.98291,,,-0.183105,,,,,,,-3.96057,-7.80579,-125.25
01:22:35.326,eb:33:2e:f9:57:b5,,0.119629,-0.080078,0.982422,,,-0.244141,,,,,,,-3.96057,-7.80579,-125.25
01:22:35.345,eb:33:2e:f9:57:b5,,0.119141,-0.07959,0.981934,,0.061035,-0.244141,,,,,,,-3.96057,-7.80579,-125.25
01:22:35.375,eb:33:2e:f9:57:b5,,0.118652,-0.080566,0.981445,,,-0.305176,,,,,,,-3.96057,-7.80579,-125.25
01:22:35.407,eb:33:2e:f9:57:b5,,0.118652,-0.080078,0.981934,,,-0.183105,,,,,,,-3.96057,-7.80579,-125.25
01:22:35.444,eb:33:2e:f9:57:b5,,0.118652,-0.080566,0.981445,,,-0.244141,,,,,,,-3.96057,-7.80579,-125.25
01:22:35.474,eb:33:2e:f9:57:b5,,0.118164,-0.07959,0.981934,,,-0.183105,,,,,,,-3.96057,-7.80579,-125.25
01:22:35.567,eb:33:2e:f9:57:b5,,0.119141,-0.080078,0.981934,,0.061035,-0.244141,,,,,,,-3.96057,-7.80579,-125.25
01:22:35.624,eb:33:2e:f9:57:b5,,0.119629,-0.080078,0.982422,,,-0.244141,,,,,,,-3.96057,-7.80579,-125.25
01:22:35.652,eb:33:2e:f9:57:b5,,0.119141,-0.080078,0.981934,,,-0.183105,,,,,,,-3.96057,-7.80579,-125.25
01:22:35.671,eb:33:2e:f9:57:b5,,0.119141,-0.07959,0.981934,,,-0.244141,,,,,,,-3.96057,-7.80579,-125.25
01:22:35.694,eb:33:2e:f9:57:b5,,0.119629,-0.07959,0.982422,,,-0.183105,,,,,,,-3.96057,-7.80579,-125.25
01:22:35.715,eb:33:2e:f9:57:b5,,0.118164,-0.07959,0.981934,,0.061035,-0.244141,,,,,,,-3.96057,-7.80579,-125.25
01:22:35.746,eb:33:2e:f9:57:b5,,0.118652,-0.07959,0.981934,,,-0.244141,,,,,,,-3.96057,-7.80579,-125.25
01:22:35.777,eb:33:2e:f9:57:b5,,0.119141,-0.080078,0.981934,,,-0.244141,,,,,,,-3.96057,-7.80029,-125.25
01:22:35.816,eb:33:2e:f9:57:b5,,0.118164,-0.080078,0.981445,,,-0.244141,,,,,,,-3.96057,-7.80029,-125.25
01:22:35.865,eb:33:2e:f9:57:b5,,0.118652,-0.080078,0.981934,,,-0.183105,,,,,,,-3.96057,-7.80029,-125.25
01:22:35.896,eb:33:2e:f9:57:b5,,0.119141,-0.07959,0.981934,,,-0.244141,,,,,,,-3.96057,-7.80029,-125.25
01:22:35.916,eb:33:2e:f9:57:b5,,0.118164,-0.080566,0.981934,,,-0.244141,,,,,,,-3.96057,-7.80029,-125.25
01:22:35.976,eb:33:2e:f9:57:b5,,0.118164,-0.080078,0.981934,,,-0.183105,,,,,,,-3.96057,-7.80029,-125.25
01:22:36.025,eb:33:2e:f9:57:b5,,0.119141,-0.07959,0.98291,,,-0.244141,,,,,,,-3.96057,-7.80029,-125.25
01:22:36.040,eb:33:2e:f9:57:b5,,0.118652,-0.07959,0.982422,-0.061035,,-0.183105,,,,,,,-3.96057,-7.80029,-125.25
01:22:36.138,eb:33:2e:f9:57:b5,,0.119629,-0.07959,0.982422,,0.061035,-0.183105,,,,,,,-3.96057,-7.80029,-125.25
01:22:36.158,eb:33:2e:f9:57:b5,,0.118652,-0.080078,0.982422,-0.061035,,-0.183105,,,,,,,-3.96057,-7.80029,-125.25
01:22:36.184,eb:33:2e:f9:57:b5,,0.118652,-0.080078,0.981934,,,-0.183105,,,,,,,-3.96057,-7.80029,-125.25
01:22:36.216,eb:33:2e:f9:57:b5,,0.119629,-0.07959,0.982422,,,-0.183105,,,,,,,-3.96057,-7.80029,-125.25
01:22:36.248,eb:33:2e:f9:57:b5,,0.118652,-0.080078,0.982422,-0.061035,,-0.183105,,,,,,,-3.96057,-7.80029,-125.25
01:22:36.279,eb:33:2e:f9:57:b5,,0.118652,-0.07959,0.981934,,,-0.183105,,,,,,,-3.96057,-7.80029,-125.25
01:22:36.343,eb:33:2e:f9:57:b5,,0.119629,-0.080566,0.982422,,,-0.183105,,,,,,,-3.96057,-7.80029,-125.25
01:22:36.374,eb:33:2e:f9:57:b5,,0.119629,-0.080078,0.981934,,,-0.244141,,,,,,,-3.96057,-7.80029,-125.25
01:22:36.422,eb:33:2e:f9:57:b5,,0.118652,-0.080078,0.981934,,,-0.244141,,,,,,,-3.96057,-7.80029,-125.25
01:22:36.454,eb:33:2e:f9:57:b5,,0.119141,-0.07959,0.981934,,,-0.183105,,,,,,,-3.96057,-7.80029,-125.25
01:22:36.488,eb:33:2e:f9:57:b5,,0.119141,-0.07959,0.981445,,,-0.183105,,,,,,,-3.96057,-7.80029,-125.25
01:22:36.519,eb:33:2e:f9:57:b5,,0.119141,-0.080078,0.980957,,,-0.183105,,,,,,,-3.96057,-7.80029,-125.25
01:22:36.581,eb:33:2e:f9:57:b5,,0.119141,-0.079102,0.981934,,,-0.183105,,,,,,,-3.96057,-7.80029,-125.25
01:22:36.627,eb:33:2e:f9:57:b5,,0.118652,-0.07959,0.981934,,,-0.183105,,,,,,,-3.96057,-7.80029,-125.25
01:22:36.676,eb:33:2e:f9:57:b5,,0.118652,-0.07959,0.98291,,0.061035,-0.244141,,,,,,,-3.96057,-7.80029,-125.25
01:22:36.692,eb:33:2e:f9:57:b5,,0.118652,-0.080078,0.981445,,,-0.244141,,,,,,,-3.96057,-7.80029,-125.25
01:22:36.723,eb:33:2e:f9:57:b5,,0.118652,-0.07959,0.981934,,0.061035,-0.305176,,,,,,,-3.96057,-7.80029,-125.25
01:22:36.787,eb:33:2e:f9:57:b5,,0.119141,-0.080078,0.981934,,0.061035,-0.183105,,,,,,,-3.96057,-7.80029,-125.25
01:22:36.846,eb:33:2e:f9:57:b5,,0.119629,-0.080078,0.981934,,0.061035,-0.244141,,,,,,,-3.96057,-7.80029,-125.25
01:22:36.867,eb:33:2e:f9:57:b5,,0.119629,-0.080078,0.981445,,,-0.244141,,,,,,,-3.96057,-7.80029,-125.25
01:22:36.914,eb:33:2e:f9:57:b5,,0.119141,-0.080078,0.981934,,,-0.305176,,,,,,,-3.96057,-7.80029,-125.25
01:22:36.946,eb:33:2e:f9:57:b5,,0.119141,-0.07959,0.981934,,,-0.244141,,,,,,,-3.96057,-7.80029,-125.25
01:22:36.965,eb:33:2e:f9:57:b5,,0.119141,-0.080566,0.98291,,,-0.244141,,,,,,,-3.96057,-7.80579,-125.25
01:22:37.025,eb:33:2e:f9:57:b5,,0.118652,-0.080078,0.981445,,,-0.183105,,,,,,,-3.96057,-7.80579,-125.25
01:22:37.059,eb:33:2e:f9:57:b5,,0.119141,-0.07959,0.981934,,,-0.244141,,,,,,,-3.96057,-7.80579,-125.25
01:22:37.089,eb:33:2e:f9:57:b5,,0.118652,-0.07959,0.981934,,,-0.244141,,,,,,,-3.96057,-7.80579,-125.25
01:22:37.154,eb:33:2e:f9:57:b5,,0.119141,-0.07959,0.982422,,,-0.183105,,,,,,,-3.96057,-7.80579,-125.25
01:22:37.185,eb:33:2e:f9:57:b5,,0.118164,-0.07959,0.981934,,,-0.183105,,,,,,,-3.96057,-7.80579,-125.25
01:22:37.201,eb:33:2e:f9:57:b5,,0.119141,-0.080566,0.981445,,0.061035,-0.183105,,,,,,,-3.96057,-7.80579,-125.25
01:22:37.264,eb:33:2e:f9:57:b5,,0.118652,-0.080078,0.982422,,0.061035,-0.244141,,,,,,,-3.96057,-7.80579,-125.25
01:22:37.296,eb:33:2e:f9:57:b5,,0.118652,-0.080078,0.982422,,,-0.244141,,,,,,,-3.96057,-7.80029,-125.25
01:22:37.349,eb:33:2e:f9:57:b5,,0.118652,-0.07959,0.982422,,,-0.244141,,,,,,,-3.96057,-7.80029,-125.25
01:22:37.391,eb:33:2e:f9:57:b5,,0.119141,-0.080566,0.980957,,,-0.183105,,,,,,,-3.96057,-7.80029,-125.25
01:22:37.428,eb:33:2e:f9:57:b5,,0.119141,-0.080566,0.981445,,,-0.183105,,,,,,,-3.96057,-7.80029,-125.25
01:22:37.454,eb:33:2e:f9:57:b5,,0.118652,-0.07959,0.982422,-0.061035,,-0.183105,,,,,,,-3.96057,-7.80029,-125.25
01:22:37.514,eb:33:2e:f9:57:b5,,0.119141,-0.080078,0.982422,,,-0.183105,,,,,,,-3.96057,-7.80029,-125.25
01:22:37.535,eb:33:2e:f9:57:b5,,0.119141,-0.07959,0.98291,,0.061035,-0.244141,,,,,,,-3.96057,-7.80579,-125.25
01:22:37.566,eb:33:2e:f9:57:b5,,0.119141,-0.07959,0.982422,,,-0.183105,,,,,,,-3.96057,-7.80579,-125.25
01:22:37.641,eb:33:2e:f9:57:b5,,0.119141,-0.07959,0.982422,,,-0.183105,,,,,,,-3.96057,-7.80579,-125.25
01:22:37.668,eb:33:2e:f9:57:b5,,0.118652,-0.080078,0.981934,,,-0.183105,,,,,,,-3.96057,-7.80579,-125.25
01:22:37.697,eb:33:2e:f9:57:b5,,0.118652,-0.07959,0.982422,,,-0.183105,,,,,,,-3.96057,-7.80579,-125.25
01:22:37.757,eb:33:2e:f9:57:b5,,0.119629,-0.080078,0.981934,,,-0.183105,,,,,,,-3.96057,-7.80579,-125.25
01:22:37.775,eb:33:2e:f9:57:b5,,0.119141,-0.080078,0.981445,,,-0.244141,,,,,,,-3.96057,-7.80579,-125.25
01:22:37.804,eb:33:2e:f9:57:b5,,0.119141,-0.080078,0.981445,,,-0.244141,,,,,,,-3.96057,-7.80579,-125.25
01:22:37.868,eb:33:2e:f9:57:b5,,0.118652,-0.080078,0.981934,,,-0.244141,,,,,,,-3.96057,-7.80579,-125.25
01:22:37.902,eb:33:2e:f9:57:b5,,0.118652,-0.080078,0.98291,,,-0.183105,,,,,,,-3.96057,-7.80579,-125.25
01:22:37.933,eb:33:2e:f9:57:b5,,0.119141,-0.081055,0.981934,,,-0.244141,,,,,,,-3.96057,-7.80579,-125.25
01:22:37.998,eb:33:2e:f9:57:b5,,0.119629,-0.07959,0.982422,,,-0.305176,,,,,,,-3.96057,-7.80029,-125.25
01:22:38.028,eb:33:2e:f9:57:b5,,0.118652,-0.080078,0.982422,,0.061035,-0.244141,,,,,,,-3.96057,-7.80029,-125.25
01:22:38.076,eb:33:2e:f9:57:b5,,0.119141,-0.080078,0.981445,,,-0.183105,,,,,,,-3.96057,-7.80029,-125.25
01:22:38.108,eb:33:2e:f9:57:b5,,0.118652,-0.07959,0.982422,,,-0.183105,,,,,,,-3.96057,-7.80029,-125.25
01:22:38.139,eb:33:2e:f9:57:b5,,0.119141,-0.080078,0.982422,,,-0.183105,,,,,,,-3.96057,-7.80029,-125.25
01:22:38.203,eb:33:2e:f9:57:b5,,0.119629,-0.080078,0.982422,,,-0.183105,,,,,,,-3.96057,-7.80029,-125.25
01:22:38.250,eb:33:2e:f9:57:b5,,0.119629,-0.081055,0.98291,,,-0.244141,,,,,,,-3.96057,-7.80029,-125.25
01:22:38.279,eb:33:2e:f9:57:b5,,0.119141,-0.080566,0.981934,,0.061035,-0.244141,,,,,,,-3.96057,-7.80029,-125.25
01:22:38.319,eb:33:2e:f9:57:b5,,0.119141,-0.07959,0.981445,,,-0.183105,,,,,,,-3.96057,-7.80029,-125.25
01:22:38.346,eb:33:2e:f9:57:b5,,0.118652,-0.080566,0.981934,,,-0.183105,,,,,,,-3.96057,-7.80029,-125.25
01:22:38.378,eb:33:2e:f9:57:b5,,0.119141,-0.080566,0.981445,,0.061035,-0.305176,,,,,,,-3.96057,-7.80579,-125.25
01:22:38.458,eb:33:2e:f9:57:b5,,0.119629,-0.079102,0.981934,,,-0.183105,,,,,,,-3.96057,-7.80579,-125.25
01:22:38.490,eb:33:2e:f9:57:b5,,0.118652,-0.080078,0.981934,,,-0.183105,,,,,,,-3.96057,-7.80579,-125.25
01:22:38.510,eb:33:2e:f9:57:b5,,0.119141,-0.080078,0.981934,,,-0.183105,,,,,,,-3.96057,-7.80579,-125.25
01:22:38.555,eb:33:2e:f9:57:b5,,0.119629,-0.080078,0.982422,,,-0.183105,,,,,,,-3.96057,-7.80579,-125.25
01:22:38.585,eb:33:2e:f9:57:b5,,0.118652,-0.079102,0.981934,,,-0.183105,,,,,,,-3.96057,-7.80579,-125.25
01:22:38.620,eb:33:2e:f9:57:b5,,0.119629,-0.080566,0.982422,,,-0.244141,,,,,,,-3.96057,-7.80579,-125.25
01:22:38.681,eb:33:2e:f9:57:b5,,0.118164,-0.080078,0.981934,,,-0.183105,,,,,,,-3.96057,-7.80579,-125.25
01:22:38.713,eb:33:2e:f9:57:b5,,0.119141,-0.07959,0.981934,,,-0.244141,,,,,,,-3.96057,-7.80579,-125.25
01:22:38.745,eb:33:2e:f9:57:b5,,0.119141,-0.080078,0.98291,,,-0.183105,,,,,,,-3.96057,-7.80579,-125.25
01:22:38.798,eb:33:2e:f9:57:b5,,0.118652,-0.07959,0.981445,,,-0.244141,,,,,,,-3.96057,-7.80579,-125.25
01:22:38.840,eb:33:2e:f9:57:b5,,0.119141,-0.080566,0.982422,-0.061035,0.061035,-0.244141,,,,,,,-3.96057,-7.80579,-125.25
01:22:38.888,eb:33:2e:f9:57:b5,,0.119141,-0.07959,0.982422,,,-0.244141,,,,,,,-3.96057,-7.80579,-125.25
01:22:38.920,eb:33:2e:f9:57:b5,,0.119629,-0.080078,0.981445,,,-0.244141,,,,,,,-3.96057,-7.80579,-125.25
01:22:38.951,eb:33:2e:f9:57:b5,,0.118652,-0.080078,0.982422,-0.061035,,-0.244141,,,,,,,-3.96057,-7.80579,-125.25
01:22:38.983,eb:33:2e:f9:57:b5,,0.118164,-0.07959,0.982422,,,-0.183105,,,,,,,-3.96057,-7.80579,-125.25
01:22:39.063,eb:33:2e:f9:57:b5,,0.118164,-0.080078,0.981445,,,-0.244141,,,,,,,-3.96057,-7.80579,-125.25
01:22:39.090,eb:33:2e:f9:57:b5,,0.119141,-0.080078,0.982422,-0.061035,,-0.183105,,,,,,,-3.96057,-7.80579,-125.25
01:22:39.110,eb:33:2e:f9:57:b5,,0.118652,-0.080078,0.981934,,,-0.183105,,,,,,,-3.96057,-7.80579,-125.25
01:22:39.164,eb:33:2e:f9:57:b5,,0.119629,-0.080078,0.981445,,,-0.183105,,,,,,,-3.96057,-7.80579,-125.25
01:22:39.206,eb:33:2e:f9:57:b5,,0.119141,-0.080078,0.981934,,,-0.244141,,,,,,,-3.96057,-7.80579,-125.25
01:22:39.222,eb:33:2e:f9:57:b5,,0.118652,-0.07959,0.98291,,,-0.244141,,,,,,,-3.96057,-7.80579,-125.25
01:22:39.286,eb:33:2e:f9:57:b5,,0.118652,-0.080078,0.981934,,,-0.244141,,,,,,,-3.96057,-7.80579,-125.25
01:22:39.302,eb:33:2e:f9:57:b5,,0.118652,-0.07959,0.982422,,,-0.183105,,,,,,,-3.96057,-7.80579,-125.25
01:22:39.333,eb:33:2e:f9:57:b5,,0.119141,-0.07959,0.982422,,0.061035,-0.183105,,,,,,,-3.96057,-7.80579,-125.25
01:22:39.397,eb:33:2e:f9:57:b5,,0.119141,-0.07959,0.981934,,,-0.183105,,,,,,,-3.96057,-7.80579,-125.25
01:22:39.429,eb:33:2e:f9:57:b5,,0.118652,-0.07959,0.982422,,,-0.244141,,,,,,,-3.96057,-7.80579,-125.25
01:22:39.496,eb:33:2e:f9:57:b5,,0.118164,-0.07959,0.982422,-0.061035,,-0.244141,,,,,,,-3.96057,-7.80579,-125.25
01:22:39.527,eb:33:2e:f9:57:b5,,0.119141,-0.080566,0.982422,,,-0.244141,,,,,,,-3.96057,-7.80579,-125.25
01:22:39.556,eb:33:2e:f9:57:b5,,0.119141,-0.080078,0.982422,-0.061035,0.061035,-0.244141,,,,,,,-3.96057,-7.80579,-125.25
01:22:39.605,eb:33:2e:f9:57:b5,,0.119141,-0.07959,0.982422,-0.061035,,-0.183105,,,,,,,-3.96057,-7.80579,-125.25
01:22:39.636,eb:33:2e:f9:57:b5,,0.119141,-0.080566,0.982422,,,-0.183105,,,,,,,-3.96057,-7.80579,-125.25
01:22:39.684,eb:33:2e:f9:57:b5,,0.118652,-0.07959,0.981934,,,-0.244141,,,,,,,-3.96057,-7.80579,-125.25
01:22:39.732,eb:33:2e:f9:57:b5,,0.118652,-0.080078,0.982422,,,-0.183105,,,,,,,-3.96057,-7.80579,-125.25
01:22:39.763,eb:33:2e:f9:57:b5,,0.118652,-0.080078,0.981934,,,-0.244141,,,,,,,-3.96057,-7.80579,-125.25
01:22:39.826,eb:33:2e:f9:57:b5,,0.118164,-0.07959,0.981934,,,-0.183105,,,,,,,-3.96057,-7.80579,-125.25
01:22:39.842,eb:33:2e:f9:57:b5,,0.119141,-0.078613,0.981934,,,-0.244141,,,,,,,-3.96057,-7.80579,-125.25
01:22:39.890,eb:33:2e:f9:57:b5,,0.118652,-0.07959,0.981934,,,-0.12207,,,,,,,-3.96057,-7.80579,-125.25
01:22:39.906,eb:33:2e:f9:57:b5,,0.119141,-0.07959,0.981934,,,-0.244141,,,,,,,-3.96057,-7.80579,-125.25
01:22:40.001,eb:33:2e:f9:57:b5,,0.118652,-0.080078,0.981934,,,-0.183105,,,,,,,-3.96057,-7.80579,-125.25
01:22:40.022,eb:33:2e:f9:57:b5,,0.119629,-0.07959,0.981445,-0.061035,0.061035,-0.183105,,,,,,,-3.96057,-7.80579,-125.25
01:22:40.055,eb:33:2e:f9:57:b5,,0.118652,-0.081055,0.982422,-0.061035,,-0.183105,,,,,,,-3.96057,-7.80579,-125.25
01:22:40.096,eb:33:2e:f9:57:b5,,0.118164,-0.07959,0.981934,,,-0.183105,,,,,,,-3.96057,-7.80579,-125.25
01:22:40.122,eb:33:2e:f9:57:b5,,0.118652,-0.080078,0.981445,,,-0.183105,,,,,,,-3.96057,-7.80579,-125.25
01:22:40.175,eb:33:2e:f9:57:b5,,0.119141,-0.080566,0.982422,-0.061035,,-0.305176,,,,,,,-3.96057,-7.80579,-125.25
01:22:40.215,eb:33:2e:f9:57:b5,,0.118652,-0.07959,0.981934,,,-0.183105,,,,,,,-3.96057,-7.80579,-125.25
01:22:40.238,eb:33:2e:f9:57:b5,,0.118652,-0.080566,0.981445,,,-0.183105,,,,,,,-3.96057,-7.80579,-125.25
01:22:40.271,eb:33:2e:f9:57:b5,,0.119141,-0.080566,0.982422,,,-0.183105,,,,,,,-3.96057,-7.80579,-125.25
01:22:40.336,eb:33:2e:f9:57:b5,,0.119141,-0.080078,0.981934,,,-0.183105,,,,,,,-3.96057,-7.80579,-125.25
01:22:40.367,eb:33:2e:f9:57:b5,,0.119141,-0.07959,0.981934,,,-0.183105,,,,,,,-3.96057,-7.80579,-125.25
01:22:40.382,eb:33:2e:f9:57:b5,,0.118652,-0.080078,0.98291,,,-0.183105,,,,,,,-3.96057,-7.80579,-125.25
01:22:40.446,eb:33:2e:f9:57:b5,,0.118652,-0.080078,0.982422,,,-0.183105,,,,,,,-3.96057,-7.80579,-125.25
01:22:40.502,eb:33:2e:f9:57:b5,,0.119141,-0.080078,0.981934,,0.061035,-0.12207,,,,,,,-3.96057,-7.80579,-125.25
01:22:40.526,eb:33:2e:f9:57:b5,,0.119141,-0.07959,0.982422,-0.061035,,-0.183105,,,,,,,-3.96057,-7.80579,-125.25
01:22:40.574,eb:33:2e:f9:57:b5,,0.118652,-0.07959,0.982422,,0.061035,-0.183105,,,,,,,-3.96057,-7.80579,-125.25
01:22:40.606,eb:33:2e:f9:57:b5,,0.118164,-0.080078,0.98291,,,-0.244141,,,,,,,-3.96057,-7.80579,-125.25
01:22:40.623,eb:33:2e:f9:57:b5,,0.119141,-0.080078,0.981934,-0.061035,,-0.244141,,,,,,,-3.96057,-7.80579,-125.25
01:22:40.702,eb:33:2e:f9:57:b5,,0.118652,-0.079102,0.982422,,,-0.183105,,,,,,,-3.96057,-7.80579,-125.25
01:22:40.754,eb:33:2e:f9:57:b5,,0.118652,-0.07959,0.981934,,,-0.244141,,,,,,,-3.96057,-7.80579,-125.25
01:22:40.781,eb:33:2e:f9:57:b5,,0.118652,-0.080566,0.981934,,,-0.183105,,,,,,,-3.96057,-7.80579,-125.25
01:22:40.813,eb:33:2e:f9:57:b5,,0.119141,-0.080078,0.981934,-0.061035,,-0.244141,,,,,,,-3.96057,-7.80579,-125.25
01:22:40.845,eb:33:2e:f9:57:b5,,0.118652,-0.080078,0.982422,-0.061035,,-0.183105,,,,,,,-3.96057,-7.80579,-125.25
01:22:40.914,eb:33:2e:f9:57:b5,,0.119629,-0.080566,0.982422,-0.061035,,-0.244141,,,,,,,-3.96057,-7.80579,-125.25
01:22:40.940,eb:33:2e:f9:57:b5,,0.119141,-0.080078,0.981934,,,-0.183105,,,,,,,-3.96057,-7.80579,-125.25
01:22:40.962,eb:33:2e:f9:57:b5,,0.118652,-0.080078,0.981934,,0.061035,-0.244141,,,,,,,-3.96057,-7.80579,-125.25
01:22:41.024,eb:33:2e:f9:57:b5,,0.118164,-0.080078,0.982422,,,-0.244141,,,,,,,-3.96057,-7.80579,-125.25
01:22:41.052,eb:33:2e:f9:57:b5,,0.118652,-0.080078,0.98291,,,-0.183105,,,,,,,-3.96057,-7.80579,-125.25
01:22:41.084,eb:33:2e:f9:57:b5,,0.119629,-0.080566,0.981445,,,-0.183105,,,,,,,-3.96057,-7.80579,-125.25
01:22:41.148,eb:33:2e:f9:57:b5,,0.120117,-0.080078,0.982422,,,-0.12207,,,,,,,-3.96057,-7.80579,-125.25
01:22:41.174,eb:33:2e:f9:57:b5,,0.118652,-0.081055,0.981934,,,-0.244141,,,,,,,-3.96057,-7.80579,-125.25
01:22:41.196,eb:33:2e:f9:57:b5,,0.118164,-0.080078,0.981934,,,-0.244141,,,,,,,-3.96057,-7.80579,-125.25
01:22:41.259,eb:33:2e:f9:57:b5,,0.119141,-0.080078,0.982422,,,-0.183105,,,,,,,-3.96057,-7.80579,-125.25
01:22:41.307,eb:33:2e:f9:57:b5,,0.119141,-0.07959,0.982422,-0.061035,,-0.244141,,,,,,,-3.96057,-7.80579,-125.25
01:22:41.346,eb:33:2e:f9:57:b5,,0.118652,-0.080078,0.981934,,,-0.244141,,,,,,,-3.96057,-7.80579,-125.25
01:22:41.387,eb:33:2e:f9:57:b5,,0.118652,-0.07959,0.981445,,,-0.244141,,,,,,,-3.96057,-7.80579,-125.25
01:22:41.406,eb:33:2e:f9:57:b5,,0.119141,-0.07959,0.981934,,,-0.183105,,,,,,,-3.96057,-7.80579,-125.25
01:22:41.466,eb:33:2e:f9:57:b5,,0.119629,-0.080078,0.981934,,,-0.244141,,,,,,,-3.96057,-7.80579,-125.25
01:22:41.514,eb:33:2e:f9:57:b5,,0.118164,-0.080566,0.981445,,,-0.183105,,,,,,,-3.96057,-7.80579,-125.25
01:22:41.546,eb:33:2e:f9:57:b5,,0.118164,-0.080078,0.982422,,0.061035,-0.183105,,,,,,,-3.96057,-7.80579,-125.25
01:22:41.572,eb:33:2e:f9:57:b5,,0.118652,-0.080078,0.981934,,,-0.183105,,,,,,,-3.96057,-7.80579,-125.25
01:22:41.626,eb:33:2e:f9:57:b5,,0.118652,-0.080078,0.981934,,0.061035,-0.183105,,,,,,,-3.96057,-7.80579,-125.25
01:22:41.657,eb:33:2e:f9:57:b5,,0.119141,-0.07959,0.981934,,,-0.244141,,,,,,,-3.96057,-7.80579,-125.25
01:22:41.675,eb:33:2e:f9:57:b5,,0.118652,-0.07959,0.982422,,,-0.183105,,,,,,,-3.96057,-7.80579,-125.25
01:22:41.736,eb:33:2e:f9:57:b5,,0.119141,-0.080566,0.982422,,,-0.183105,,,,,,,-3.96057,-7.80579,-125.25
01:22:41.776,eb:33:2e:f9:57:b5,,0.119629,-0.079102,0.982422,,,-0.183105,,,,,,,-3.96057,-7.80029,-125.25
01:22:41.801,eb:33:2e:f9:57:b5,,0.118164,-0.07959,0.982422,,,-0.183105,,,,,,,-3.96057,-7.80029,-125.25
01:22:41.863,eb:33:2e:f9:57:b5,,0.118652,-0.080078,0.982422,,,-0.305176,,,,,,,-3.96057,-7.80029,-125.25
01:22:41.894,eb:33:2e:f9:57:b5,,0.118652,-0.07959,0.982422,,,-0.183105,,,,,,,-3.96057,-7.80029,-125.25
01:22:41.925,eb:33:2e:f9:57:b5,,0.119141,-0.080078,0.981445,,,-0.305176,,,,,,,-3.96057,-7.80029,-125.25
01:22:41.973,eb:33:2e:f9:57:b5,,0.119141,-0.07959,0.982422,,,-0.244141,,,,,,,-3.96057,-7.80029,-125.25
01:22:42.017,eb:33:2e:f9:57:b5,,0.119141,-0.081055,0.981934,,,-0.183105,,,,,,,-3.96057,-7.80029,-125.25
01:22:42.036,eb:33:2e:f9:57:b5,,0.118652,-0.07959,0.982422,,,-0.244141,,,,,,,-3.96057,-7.80029,-125.25
01:22:42.100,eb:33:2e:f9:57:b5,,0.118652,-0.080078,0.982422,,,-0.183105,,,,,,,-3.96057,-7.80029,-125.25
01:22:42.148,eb:33:2e:f9:57:b5,,0.119141,-0.080078,0.982422,,0.061035,-0.244141,,,,,,,-3.96057,-7.80029,-125.25
01:22:42.174,eb:33:2e:f9:57:b5,,0.118652,-0.080566,0.98291,,,-0.183105,,,,,,,-3.96057,-7.80029,-125.25
01:22:42.228,eb:33:2e:f9:57:b5,,0.118652,-0.07959,0.981934,,,-0.183105,,,,,,,-3.96057,-7.80029,-125.25
01:22:42.244,eb:33:2e:f9:57:b5,,0.118164,-0.080078,0.981934,,0.061035,-0.183105,,,,,,,-3.96057,-7.80029,-125.25
01:22:42.326,eb:33:2e:f9:57:b5,,0.119141,-0.080566,0.981445,,,-0.244141,,,,,,,-3.96057,-7.80029,-125.25
01:22:42.358,eb:33:2e:f9:57:b5,,0.118652,-0.07959,0.982422,,,-0.244141,,,,,,,-3.96057,-7.80029,-125.25
01:22:42.373,eb:33:2e:f9:57:b5,,0.118164,-0.080566,0.98291,,,-0.244141,,,,,,,-3.96057,-7.80029,-125.25
01:22:42.436,eb:33:2e:f9:57:b5,,0.118652,-0.080078,0.982422,,,-0.183105,,,,,,,-3.96057,-7.80029,-125.25
01:22:42.452,eb:33:2e:f9:57:b5,,0.119141,-0.080566,0.982422,,0.061035,-0.183105,,,,,,,-3.96057,-7.80029,-125.25
01:22:42.487,eb:33:2e:f9:57:b5,,0.118652,-0.080078,0.982422,,,-0.244141,,,,,,,-3.96057,-7.80029,-125.25
01:22:42.547,eb:33:2e:f9:57:b5,,0.119141,-0.080078,0.98291,,,-0.183105,,,,,,,-3.96057,-7.80029,-125.25
01:22:42.579,eb:33:2e:f9:57:b5,,0.119141,-0.07959,0.981934,,,-0.244141,,,,,,,-3.96057,-7.80029,-125.25
01:22:42.610,eb:33:2e:f9:57:b5,,0.119141,-0.080078,0.98291,,,-0.183105,,,,,,,-3.96057,-7.80029,-125.25
01:22:42.674,eb:33:2e:f9:57:b5,,0.118652,-0.080078,0.981445,,0.061035,-0.244141,,,,,,,-3.96057,-7.80029,-125.25
01:22:42.706,eb:33:2e:f9:57:b5,,0.119629,-0.079102,0.981934,,,-0.244141,,,,,,,-3.96057,-7.80029,-125.25
01:22:42.738,eb:33:2e:f9:57:b5,,0.118164,-0.080566,0.981445,,,-0.183105,,,,,,,-3.96057,-7.80029,-125.25
01:22:42.786,eb:33:2e:f9:57:b5,,0.119141,-0.080078,0.98291,-0.061035,,-0.244141,,,,,,,-3.96057,-7.80029,-125.25
01:22:42.834,eb:33:2e:f9:57:b5,,0.118652,-0.07959,0.981445,,,-0.183105,,,,,,,-3.96057,-7.80029,-125.25
01:22:42.865,eb:33:2e:f9:57:b5,,0.118652,-0.080566,0.981934,,,-0.12207,,,,,,,-3.96057,-7.80029,-125.25
01:22:42.913,eb:33:2e:f9:57:b5,,0.119141,-0.080078,0.981934,-0.061035,,-0.183105,,,,,,,-3.96057,-7.80029,-125.25
01:22:42.976,eb:33:2e:f9:57:b5,,0.119141,-0.080078,0.981934,-0.061035,,-0.183105,,,,,,,-3.96057,-7.80029,-125.25
01:22:42.992,eb:33:2e:f9:57:b5,,0.118652,-0.07959,0.982422,,,-0.12207,,,,,,,-3.96057,-7.80029,-125.25
01:22:43.027,eb:33:2e:f9:57:b5,,0.118652,-0.080078,0.982422,,,-0.183105,,,,,,,-3.96057,-7.80029,-125.25
01:22:43.055,eb:33:2e:f9:57:b5,,0.119141,-0.080078,0.982422,,,-0.12207,,,,,,,-3.96057,-7.80029,-125.25
01:22:43.087,eb:33:2e:f9:57:b5,,0.119141,-0.07959,0.981934,,,-0.183105,,,,,,,-3.96057,-7.80029,-125.25
01:22:43.151,eb:33:2e:f9:57:b5,,0.118652,-0.080078,0.982422,,,-0.244141,,,,,,,-3.96057,-7.80029,-125.25
01:22:43.184,eb:33:2e:f9:57:b5,,0.118652,-0.07959,0.982422,,,-0.183105,,,,,,,-3.96057,-7.80029,-125.25
01:22:43.216,eb:33:2e:f9:57:b5,,0.119141,-0.080078,0.982422,,,-0.183105,,,,,,,-3.96057,-7.80029,-125.25
01:22:43.263,eb:33:2e:f9:57:b5,,0.119141,-0.07959,0.982422,,,-0.244141,,,,,,,-3.96057,-7.80029,-125.25
01:22:43.295,eb:33:2e:f9:57:b5,,0.118652,-0.080566,0.981934,,0.061035,-0.183105,,,,,,,-3.96057,-7.80029,-125.25
01:22:43.342,eb:33:2e:f9:57:b5,,0.118652,-0.080566,0.982422,,,-0.244141,,,,,,,-3.96057,-7.80029,-125.25
01:22:43.394,eb:33:2e:f9:57:b5,,0.118652,-0.07959,0.981934,,,-0.183105,,,,,,,-3.96057,-7.80029,-125.25
01:22:43.421,eb:33:2e:f9:57:b5,,0.118652,-0.080566,0.982422,,,-0.183105,,,,,,,-3.96057,-7.80029,-125.25
01:22:43.456,eb:33:2e:f9:57:b5,,0.118652,-0.080078,0.981934,,,-0.244141,,,,,,,-3.96057,-7.80029,-125.25
01:22:43.516,eb:33:2e:f9:57:b5,,0.118652,-0.080566,0.98291,,,-0.305176,,,,,,,-3.96057,-7.80029,-125.25
01:22:43.564,eb:33:2e:f9:57:b5,,0.119141,-0.080566,0.982422,,,-0.244141,,,,,,,-3.96057,-7.80029,-125.25
01:22:43.597,eb:33:2e:f9:57:b5,,0.118652,-0.07959,0.981934,,,-0.183105,,,,,,,-3.96057,-7.80029,-125.25
01:22:43.628,eb:33:2e:f9:57:b5,,0.118652,-0.07959,0.982422,,0.061035,-0.183105,,,,,,,-3.96057,-7.80029,-125.25
01:22:43.659,eb:33:2e:f9:57:b5,,0.118652,-0.07959,0.981445,,,-0.244141,,,,,,,-3.96057,-7.80029,-125.25
01:22:43.722,eb:33:2e:f9:57:b5,,0.119141,-0.079102,0.98291,,,-0.183105,,,,,,,-3.96057,-7.80029,-125.25
01:22:43.754,eb:33:2e:f9:57:b5,,0.118164,-0.080566,0.981934,,,-0.183105,,,,,,,-3.96057,-7.80029,-125.25
01:22:43.789,eb:33:2e:f9:57:b5,,0.118652,-0.080078,0.981934,,,-0.244141,,,,,,,-3.96057,-7.80029,-125.25
01:22:43.833,eb:33:2e:f9:57:b5,,0.118652,-0.080078,0.982422,,,-0.183105,,,,,,,-3.96057,-7.80029,-125.25
01:22:43.866,eb:33:2e:f9:57:b5,,0.118652,-0.07959,0.982422,,,-0.183105,,,,,,,-3.96057,-7.80029,-125.25
01:22:43.897,eb:33:2e:f9:57:b5,,0.118164,-0.080566,0.981445,,,-0.244141,,,,,,,-3.96057,-7.80029,-125.25
01:22:43.960,eb:33:2e:f9:57:b5,,0.118164,-0.080078,0.981934,,,-0.244141,,,,,,,-3.96057,-7.80029,-125.25
01:22:43.992,eb:33:2e:f9:57:b5,,0.118652,-0.07959,0.981445,,,-0.244141,,,,,,,-3.96057,-7.80029,-125.25
01:22:44.026,eb:33:2e:f9:57:b5,,0.118652,-0.080078,0.981934,,,-0.244141,,,,,,,-3.96057,-7.80029,-125.25
01:22:44.088,eb:33:2e:f9:57:b5,,0.118652,-0.080566,0.982422,,,-0.244141,,,,,,,-3.96057,-7.80029,-125.25
01:22:44.126,eb:33:2e:f9:57:b5,,0.118652,-0.080078,0.981934,,,-0.183105,,,,,,,-3.96057,-7.80029,-125.25
01:22:44.151,eb:33:2e:f9:57:b5,,0.118652,-0.080078,0.981934,,,-0.244141,,,,,,,-3.96057,-7.80029,-125.25
01:22:44.198,eb:33:2e:f9:57:b5,,0.118652,-0.080078,0.981934,,,-0.183105,,,,,,,-3.96057,-7.80029,-125.25
01:22:44.261,eb:33:2e:f9:57:b5,,0.118652,-0.079102,0.982422,,,-0.244141,,,,,,,-3.96057,-7.80029,-125.25
01:22:44.297,eb:33:2e:f9:57:b5,,0.119141,-0.07959,0.981934,,,-0.183105,,,,,,,-3.96057,-7.80029,-125.25
01:22:44.324,eb:33:2e:f9:57:b5,,0.118652,-0.080078,0.981445,,,-0.183105,,,,,,,-3.96057,-7.80029,-125.25
01:22:44.364,eb:33:2e:f9:57:b5,,0.119141,-0.080078,0.982422,,,-0.183105,,,,,,,-3.96057,-7.80029,-125.25
01:22:44.372,eb:33:2e:f9:57:b5,,0.118652,-0.080566,0.982422,-0.061035,,-0.244141,,,,,,,-3.96057,-7.80029,-125.25
01:22:44.438,eb:33:2e:f9:57:b5,,0.119141,-0.07959,0.981934,,,-0.183105,,,,,,,-3.96057,-7.80029,-125.25
01:22:44.475,eb:33:2e:f9:57:b5,,0.118652,-0.07959,0.981934,,,-0.183105,,,,,,,-3.96057,-7.80029,-125.25
01:22:44.501,eb:33:2e:f9:57:b5,,0.119141,-0.080078,0.981445,,,-0.183105,,,,,,,-3.96057,-7.80029,-125.25
01:22:44.564,eb:33:2e:f9:57:b5,,0.119141,-0.080078,0.982422,,,-0.183105,,,,,,,-3.96057,-7.80029,-125.25
01:22:44.596,eb:33:2e:f9:57:b5,,0.119141,-0.080078,0.982422,,,-0.244141,,,,,,,-3.96057,-7.80029,-125.25
01:22:44.627,eb:33:2e:f9:57:b5,,0.119141,-0.080566,0.982422,,,-0.244141,,,,,,,-3.96057,-7.80029,-125.25
01:22:44.676,eb:33:2e:f9:57:b5,,0.117676,-0.080078,0.981934,,,-0.244141,,,,,,,-3.96057,-7.80029,-125.25
01:22:44.708,eb:33:2e:f9:57:b5,,0.118652,-0.080566,0.981934,,,-0.183105,,,,,,,-3.96057,-7.80029,-125.25
01:22:44.740,eb:33:2e:f9:57:b5,,0.118652,-0.080078,0.982422,,,-0.244141,,,,,,,-3.96057,-7.80029,-125.25
01:22:44.805,eb:33:2e:f9:57:b5,,0.118652,-0.080078,0.981934,,0.061035,-0.244141,,,,,,,-3.96057,-7.80029,-125.25
01:22:44.836,eb:33:2e:f9:57:b5,,0.118652,-0.07959,0.982422,,0.061035,-0.244141,,,,,,,-3.96057,-7.80029,-125.25
01:22:44.867,eb:33:2e:f9:57:b5,,0.118652,-0.07959,0.98291,,,-0.244141,,,,,,,-3.96057,-7.80029,-125.25
01:22:44.915,eb:33:2e:f9:57:b5,,0.119141,-0.080078,0.98291,,,-0.244141,,,,,,,-3.96057,-7.80029,-125.25
01:22:44.964,eb:33:2e:f9:57:b5,,0.119141,-0.080078,0.98291,,,-0.183105,,,,,,,-3.96057,-7.80029,-125.25
01:22:44.995,eb:33:2e:f9:57:b5,,0.119141,-0.07959,0.982422,-0.061035,,-0.183105,,,,,,,-3.96057,-7.80029,-125.25
01:22:45.046,eb:33:2e:f9:57:b5,,0.118652,-0.080566,0.981934,,,-0.12207,,,,,,,-3.96057,-7.80029,-125.25
01:22:45.073,eb:33:2e:f9:57:b5,,0.119141,-0.07959,0.981934,,0.061035,-0.244141,,,,,,,-3.96057,-7.80029,-125.25
01:22:45.137,eb:33:2e:f9:57:b5,,0.119629,-0.07959,0.981934,,,-0.183105,,,,,,,-3.96057,-7.80029,-125.25
01:22:45.169,eb:33:2e:f9:57:b5,,0.118652,-0.080078,0.982422,,,-0.183105,,,,,,,-3.96057,-7.80029,-125.25
01:22:45.201,eb:33:2e:f9:57:b5,,0.119141,-0.07959,0.981934,,0.061035,-0.183105,,,,,,,-3.96057,-7.80029,-125.25
01:22:45.248,eb:33:2e:f9:57:b5,,0.119141,-0.080078,0.981934,,,-0.12207,,,,,,,-3.96057,-7.80029,-125.25
01:22:45.286,eb:33:2e:f9:57:b5,,0.119629,-0.080566,0.982422,,0.061035,-0.183105,,,,,,,-3.96057,-7.80029,-125.25
01:22:45.310,eb:33:2e:f9:57:b5,,0.118652,-0.07959,0.982422,,,-0.12207,,,,,,,-3.96057,-7.80029,-125.25
01:22:45.407,eb:33:2e:f9:57:b5,,0.118652,-0.080078,0.981934,,,-0.244141,,,,,,,-3.96057,-7.80029,-125.25
01:22:45.444,eb:33:2e:f9:57:b5,,0.119141,-0.07959,0.981445,,,-0.183105,,,,,,,-3.96057,-7.80029,-125.25
01:22:45.469,eb:33:2e:f9:57:b5,,0.119141,-0.080566,0.982422,-0.061035,,-0.183105,,,,,,,-3.96057,-7.80029,-125.25
01:22:45.486,eb:33:2e:f9:57:b5,,0.119141,-0.078613,0.981934,,,-0.183105,,,,,,,-3.96057,-7.80029,-125.25
01:22:45.527,eb:33:2e:f9:57:b5,,0.119141,-0.080566,0.982422,-0.061035,,-0.244141,,,,,,,-3.96057,-7.80029,-125.25
01:22:45.549,eb:33:2e:f9:57:b5,,0.118652,-0.080566,0.981934,-0.061035,0.061035,-0.183105,,,,,,,-3.96057,-7.80029,-125.25
01:22:45.612,eb:33:2e:f9:57:b5,,0.118652,-0.079102,0.982422,,0.061035,-0.183105,,,,,,,-3.96057,-7.80029,-125.25
01:22:45.644,eb:33:2e:f9:57:b5,,0.119141,-0.080078,0.981934,,0.061035,-0.244141,,,,,,,-3.96057,-7.80029,-125.25
01:22:45.676,eb:33:2e:f9:57:b5,,0.119141,-0.080566,0.981934,,,-0.183105,,,,,,,-3.96057,-7.80029,-125.25
01:22:45.724,eb:33:2e:f9:57:b5,,0.118652,-0.07959,0.982422,,,-0.244141,,,,,,,-3.96057,-7.80029,-125.25
01:22:45.776,eb:33:2e:f9:57:b5,,0.118164,-0.07959,0.982422,,,-0.244141,,,,,,,-3.96057,-7.80029,-125.25
01:22:45.804,eb:33:2e:f9:57:b5,,0.118652,-0.07959,0.982422,,,-0.183105,,,,,,,-3.96057,-7.80029,-125.25
01:22:45.851,eb:33:2e:f9:57:b5,,0.119141,-0.080078,0.981445,,,-0.183105,,,,,,,-3.96057,-7.80029,-125.25
01:22:45.883,eb:33:2e:f9:57:b5,,0.118652,-0.07959,0.982422,,,-0.183105,,,,,,,-3.96057,-7.80029,-125.25
01:22:45.916,eb:33:2e:f9:57:b5,,0.118652,-0.080566,0.982422,,,-0.244141,,,,,,,-3.96057,-7.80029,-125.25
01:22:45.979,eb:33:2e:f9:57:b5,,0.119141,-0.07959,0.981934,,,-0.183105,,,,,,,-3.96057,-7.80029,-125.25
01:22:46.011,eb:33:2e:f9:57:b5,,0.119141,-0.080078,0.981445,-0.061035,,-0.183105,,,,,,,-3.96057,-7.80029,-125.25
01:22:46.028,eb:33:2e:f9:57:b5,,0.119141,-0.07959,0.982422,-0.061035,0.061035,-0.244141,,,,,,,-3.96057,-7.80029,-125.25
01:22:46.092,eb:33:2e:f9:57:b5,,0.119141,-0.080078,0.98291,,0.061035,-0.244141,,,,,,,-3.96057,-7.80029,-125.25
01:22:46.122,eb:33:2e:f9:57:b5,,0.118652,-0.07959,0.981934,,,-0.244141,,,,,,,-3.96057,-7.80029,-125.25
01:22:46.154,eb:33:2e:f9:57:b5,,0.119141,-0.080566,0.98291,,,-0.183105,,,,,,,-3.96057,-7.80029,-125.25
01:22:46.202,eb:33:2e:f9:57:b5,,0.119629,-0.07959,0.981445,,0.061035,-0.183105,,,,,,,-3.96057,-7.80029,-125.25
01:22:46.239,eb:33:2e:f9:57:b5,,0.118652,-0.080078,0.981934,-0.061035,,-0.183105,,,,,,,-3.96057,-7.80029,-125.25
01:22:46.266,eb:33:2e:f9:57:b5,,0.118652,-0.07959,0.981934,,0.061035,-0.244141,,,,,,,-3.96057,-7.80029,-125.25
01:22:46.336,eb:33:2e:f9:57:b5,,0.118652,-0.080078,0.981934,-0.061035,,-0.244141,,,,,,,-3.96057,-7.80029,-125.25
01:22:46.361,eb:33:2e:f9:57:b5,,0.118164,-0.080566,0.981445,,,-0.12207,,,,,,,-3.96057,-7.80029,-125.25
01:22:46.392,eb:33:2e:f9:57:b5,,0.118652,-0.080078,0.980957,,,-0.183105,,,,,,,-3.96057,-7.80029,-125.25
01:22:46.457,eb:33:2e:f9:57:b5,,0.118652,-0.07959,0.981934,,,-0.183105,,,,,,,-3.96057,-7.80029,-125.25
01:22:46.479,eb:33:2e:f9:57:b5,,0.118652,-0.080566,0.981445,,,-0.183105,,,,,,,-3.96057,-7.80029,-125.25
01:22:46.536,eb:33:2e:f9:57:b5,,0.120117,-0.080566,0.981934,,,-0.183105,,,,,,,-3.96057,-7.80029,-125.25
01:22:46.584,eb:33:2e:f9:57:b5,,0.119141,-0.080566,0.98291,,,-0.244141,,,,,,,-3.96057,-7.80029,-125.25
01:22:46.615,eb:33:2e:f9:57:b5,,0.119141,-0.080566,0.981934,,,-0.12207,,,,,,,-3.96057,-7.80029,-125.25
01:22:46.663,eb:33:2e:f9:57:b5,,0.119141,-0.07959,0.981934,,,-0.183105,,,,,,,-3.96057,-7.80029,-125.25
01:22:46.696,eb:33:2e:f9:57:b5,,0.119141,-0.080078,0.981934,,,-0.183105,,,,,,,-3.96057,-7.80029,-125.25
01:22:46.726,eb:33:2e:f9:57:b5,,0.118652,-0.080078,0.981934,,,-0.244141,,,,,,,-3.96057,-7.80029,-125.25
01:22:46.774,eb:33:2e:f9:57:b5,,0.118652,-0.079102,0.981934,,,-0.12207,,,,,,,-3.96057,-7.80029,-125.25
01:22:46.829,eb:33:2e:f9:57:b5,,0.118652,-0.080078,0.981445,,,-0.183105,,,,,,,-3.96057,-7.80029,-125.25
01:22:46.859,eb:33:2e:f9:57:b5,,0.118652,-0.080078,0.982422,,,-0.183105,,,,,,,-3.96057,-7.80029,-125.25
01:22:46.902,eb:33:2e:f9:57:b5,,0.118652,-0.080078,0.982422,,,-0.244141,,,,,,,-3.96057,-7.80029,-125.25
01:22:46.933,eb:33:2e:f9:57:b5,,0.118652,-0.07959,0.982422,,,-0.244141,,,,,,,-3.96057,-7.80029,-125.25
01:22:46.965,eb:33:2e:f9:57:b5,,0.118164,-0.07959,0.981934,,,-0.183105,,,,,,,-3.96057,-7.80029,-125.25
01:22:47.047,eb:33:2e:f9:57:b5,,0.118652,-0.080078,0.982422,,0.061035,-0.183105,,,,,,,-3.96057,-7.80029,-125.25
01:22:47.092,eb:33:2e:f9:57:b5,,0.118652,-0.080566,0.982422,,,-0.244141,,,,,,,-3.96057,-7.80029,-125.25
01:22:47.124,eb:33:2e:f9:57:b5,,0.119629,-0.080078,0.981445,,,-0.183105,,,,,,,-3.96057,-7.80029,-125.25
01:22:47.156,eb:33:2e:f9:57:b5,,0.119141,-0.079102,0.98291,,,-0.12207,,,,,,,-3.96057,-7.80029,-125.25
01:22:47.172,eb:33:2e:f9:57:b5,,0.118164,-0.079102,0.981445,,,-0.12207,,,,,,,-3.96057,-7.80029,-125.25
01:22:47.219,eb:33:2e:f9:57:b5,,0.118652,-0.080078,0.981934,,0.061035,-0.12207,,,,,,,-3.96057,-7.80029,-125.25
01:22:47.267,eb:33:2e:f9:57:b5,,0.119141,-0.080078,0.981934,,,-0.183105,,,,,,,-3.96057,-7.80029,-125.25
01:22:47.298,eb:33:2e:f9:57:b5,,0.118164,-0.07959,0.982422,,,-0.244141,,,,,,,-3.96057,-7.80029,-125.25
01:22:47.315,eb:33:2e:f9:57:b5,,0.119141,-0.07959,0.980957,,0.061035,-0.244141,,,,,,,-3.96057,-7.80029,-125.25
01:22:47.409,eb:33:2e:f9:57:b5,,0.119141,-0.080566,0.981934,,,-0.244141,,,,,,,-3.96057,-7.80029,-125.25
01:22:47.440,eb:33:2e:f9:57:b5,,0.118652,-0.079102,0.981445,,,-0.183105,,,,,,,-3.96057,-7.80029,-125.25
01:22:47.461,eb:33:2e:f9:57:b5,,0.118652,-0.07959,0.981934,,,-0.244141,,,,,,,-3.96057,-7.80029,-125.25
01:22:47.506,eb:33:2e:f9:57:b5,,0.119141,-0.080078,0.982422,,0.061035,-0.244141,,,,,,,-3.96057,-7.80029,-125.25
01:22:47.536,eb:33:2e:f9:57:b5,,0.118652,-0.07959,0.981445,,,-0.244141,,,,,,,-3.96057,-7.80029,-125.25
01:22:47.567,eb:33:2e:f9:57:b5,,0.118652,-0.07959,0.981445,,,-0.183105,,,,,,,-3.96057,-7.80029,-125.25
01:22:47.615,eb:33:2e:f9:57:b5,,0.118164,-0.080078,0.981934,-0.061035,,-0.244141,,,,,,,-3.96057,-7.80029,-125.25
01:22:47.647,eb:33:2e:f9:57:b5,,0.117676,-0.080078,0.981445,-0.061035,0.061035,-0.183105,,,,,,,-3.96057,-7.80029,-125.25
01:22:47.678,eb:33:2e:f9:57:b5,,0.118652,-0.081055,0.981934,,,-0.244141,,,,,,,-3.96057,-7.80029,-125.25
01:22:47.741,eb:33:2e:f9:57:b5,,0.119141,-0.080078,0.981934,,,-0.244141,,,,,,,-3.96057,-7.80029,-125.25
01:22:47.775,eb:33:2e:f9:57:b5,,0.118652,-0.07959,0.982422,,0.061035,-0.183105,,,,,,,-3.96057,-7.80029,-125.25
01:22:47.821,eb:33:2e:f9:57:b5,,0.118652,-0.080078,0.982422,,,-0.244141,,,,,,,-3.96057,-7.80029,-125.25
01:22:47.853,eb:33:2e:f9:57:b5,,0.118164,-0.07959,0.981934,,,-0.183105,,,,,,,-3.96057,-7.80029,-125.25
01:22:47.901,eb:33:2e:f9:57:b5,,0.118164,-0.07959,0.982422,-0.061035,,-0.244141,,,,,,,-3.96057,-7.80029,-125.25
01:22:47.954,eb:33:2e:f9:57:b5,,0.118652,-0.080078,0.982422,-0.061035,0.061035,-0.244141,,,,,,,-3.96057,-7.7948,-125.25
01:22:47.980,eb:33:2e:f9:57:b5,,0.118164,-0.080078,0.981445,,,-0.244141,,,,,,,-3.96057,-7.7948,-125.25
01:22:48.027,eb:33:2e:f9:57:b5,,0.118652,-0.080078,0.981934,,0.061035,-0.244141,,,,,,,-3.96057,-7.7948,-125.25
01:22:48.075,eb:33:2e:f9:57:b5,,0.118652,-0.080078,0.98291,,,-0.244141,,,,,,,-3.96057,-7.7948,-125.25
01:22:48.106,eb:33:2e:f9:57:b5,,0.118164,-0.080566,0.981934,,,-0.244141,,,,,,,-3.96057,-7.7948,-125.25
01:22:48.123,eb:33:2e:f9:57:b5,,0.118652,-0.080078,0.982422,,0.061035,-0.183105,,,,,,,-3.96057,-7.7948,-125.25
01:22:48.185,eb:33:2e:f9:57:b5,,0.118164,-0.080566,0.981934,,,-0.244141,,,,,,,-3.96057,-7.7948,-125.25
01:22:48.233,eb:33:2e:f9:57:b5,,0.119629,-0.07959,0.981934,,,-0.183105,,,,,,,-3.96057,-7.7948,-125.25
01:22:48.249,eb:33:2e:f9:57:b5,,0.119141,-0.07959,0.981934,,,-0.244141,,,,,,,-3.96057,-7.7948,-125.25
01:22:48.313,eb:33:2e:f9:57:b5,,0.118652,-0.080566,0.981934,,0.061035,-0.183105,,,,,,,-3.96057,-7.7948,-125.25
01:22:48.344,eb:33:2e:f9:57:b5,,0.118164,-0.080078,0.981934,,,-0.183105,,,,,,,-3.96057,-7.7948,-125.25
01:22:48.376,eb:33:2e:f9:57:b5,,0.119141,-0.080078,0.982422,,,-0.244141,,,,,,,-3.96057,-7.7948,-125.25
01:22:48.424,eb:33:2e:f9:57:b5,,0.118164,-0.080566,0.981934,,,-0.183105,,,,,,,-3.96057,-7.7948,-125.25
01:22:48.460,eb:33:2e:f9:57:b5,,0.118164,-0.080078,0.982422,-0.061035,0.061035,-0.183105,,,,,,,-3.96057,-7.7948,-125.25
01:22:48.488,eb:33:2e:f9:57:b5,,0.118652,-0.080078,0.981445,,0.061035,-0.183105,,,,,,,-3.96057,-7.7948,-125.25
01:22:48.551,eb:33:2e:f9:57:b5,,0.118652,-0.080078,0.982422,,,-0.183105,,,,,,,-3.96057,-7.7948,-125.25
01:22:48.583,eb:33:2e:f9:57:b5,,0.119141,-0.080078,0.981934,,,-0.183105,,,,,,,-3.96057,-7.7948,-125.25
01:22:48.615,eb:33:2e:f9:57:b5,,0.119141,-0.080078,0.981445,-0.061035,,-0.244141,,,,,,,-3.96057,-7.7948,-125.25
01:22:48.664,eb:33:2e:f9:57:b5,,0.119141,-0.080566,0.981934,,,-0.244141,,,,,,,-3.96057,-7.7948,-125.25
01:22:48.694,eb:33:2e:f9:57:b5,,0.119141,-0.080078,0.981445,,,-0.183105,,,,,,,-3.96057,-7.7948,-125.25
01:22:48.739,eb:33:2e:f9:57:b5,,0.118652,-0.080078,0.98291,,,-0.244141,,,,,,,-3.96057,-7.7948,-125.25
01:22:48.789,eb:33:2e:f9:57:b5,,0.118164,-0.07959,0.982422,,,-0.244141,,,,,,,-3.96057,-7.7948,-125.25
01:22:48.837,eb:33:2e:f9:57:b5,,0.119629,-0.079102,0.981445,,,-0.244141,,,,,,,-3.96057,-7.7948,-125.25
01:22:48.853,eb:33:2e:f9:57:b5,,0.118652,-0.080078,0.982422,,,-0.244141,,,,,,,-3.96057,-7.7948,-125.25
01:22:48.922,eb:33:2e:f9:57:b5,,0.119141,-0.080078,0.982422,,,-0.183105,,,,,,,-3.96057,-7.7948,-125.25
01:22:48.934,eb:33:2e:f9:57:b5,,0.118652,-0.080566,0.982422,,,-0.183105,,,,,,,-3.96057,-7.7948,-125.25
01:22:48.963,eb:33:2e:f9:57:b5,,0.119629,-0.080078,0.982422,-0.061035,0.061035,-0.183105,,,,,,,-3.96057,-7.7948,-125.25
01:22:49.027,eb:33:2e:f9:57:b5,,0.118652,-0.080566,0.982422,,0.061035,-0.183105,,,,,,,-3.96057,-7.7948,-125.25
01:22:49.095,eb:33:2e:f9:57:b5,,0.119141,-0.079102,0.982422,,,-0.183105,,,,,,,-3.96057,-7.7948,-125.25
01:22:49.123,eb:33:2e:f9:57:b5,,0.118652,-0.07959,0.982422,,,-0.244141,,,,,,,-3.96057,-7.7948,-125.25
01:22:49.155,eb:33:2e:f9:57:b5,,0.118652,-0.080078,0.981934,,,-0.305176,,,,,,,-3.96057,-7.7948,-125.25
01:22:49.187,eb:33:2e:f9:57:b5,,0.118652,-0.080078,0.982422,,,-0.183105,,,,,,,-3.96057,-7.7948,-125.25
01:22:49.219,eb:33:2e:f9:57:b5,,0.119629,-0.080078,0.982422,-0.061035,,-0.183105,,,,,,,-3.96057,-7.7948,-125.25
01:22:49.266,eb:33:2e:f9:57:b5,,0.119141,-0.07959,0.98291,,0.061035,-0.183105,,,,,,,-3.96057,-7.7948,-125.25
01:22:49.298,eb:33:2e:f9:57:b5,,0.118652,-0.080566,0.981934,,,-0.183105,,,,,,,-3.96057,-7.7948,-125.25
01:22:49.367,eb:33:2e:f9:57:b5,,0.118652,-0.07959,0.981934,-0.061035,,-0.244141,,,,,,,-3.96057,-7.7948,-125.25
01:22:49.396,eb:33:2e:f9:57:b5,,0.118164,-0.07959,0.981934,,,-0.183105,,,,,,,-3.96057,-7.7948,-125.25
01:22:49.441,eb:33:2e:f9:57:b5,,0.119141,-0.080078,0.981934,,,-0.183105,,,,,,,-3.96057,-7.7948,-125.25
01:22:49.485,eb:33:2e:f9:57:b5,,0.118164,-0.080078,0.981934,,,-0.183105,,,,,,,-3.96057,-7.7948,-125.25
01:22:49.503,eb:33:2e:f9:57:b5,,0.118652,-0.07959,0.981934,,,-0.183105,,,,,,,-3.96057,-7.7948,-125.25
01:22:49.535,eb:33:2e:f9:57:b5,,0.118652,-0.07959,0.981934,,,-0.183105,,,,,,,-3.96057,-7.7948,-125.25
01:22:49.602,eb:33:2e:f9:57:b5,,0.118652,-0.080078,0.981934,,,-0.244141,,,,,,,-3.96057,-7.7948,-125.25
01:22:49.651,eb:33:2e:f9:57:b5,,0.118652,-0.080078,0.981934,,,-0.183105,,,,,,,-3.96057,-7.7948,-125.25
01:22:49.682,eb:33:2e:f9:57:b5,,0.119141,-0.080566,0.982422,,0.061035,-0.244141,,,,,,,-3.96057,-7.7948,-125.25
01:22:49.726,eb:33:2e:f9:57:b5,,0.119141,-0.080078,0.981934,,,-0.305176,,,,,,,-3.96057,-7.7948,-125.25
01:22:49.741,eb:33:2e:f9:57:b5,,0.119141,-0.080078,0.98291,,,-0.244141,,,,,,,-3.96057,-7.7948,-125.25
01:22:49.773,eb:33:2e:f9:57:b5,,0.119141,-0.079102,0.982422,,,-0.244141,,,,,,,-3.96057,-7.7948,-125.25
01:22:49.852,eb:33:2e:f9:57:b5,,0.119141,-0.07959,0.981934,,,-0.183105,,,,,,,-3.96057,-7.7948,-125.25
01:22:49.900,eb:33:2e:f9:57:b5,,0.119141,-0.080566,0.982422,,,-0.12207,,,,,,,-3.96057,-7.7948,-125.25
01:22:49.932,eb:33:2e:f9:57:b5,,0.118652,-0.080566,0.981445,,,-0.183105,,,,,,,-3.96057,-7.7948,-125.25
01:22:49.966,eb:33:2e:f9:57:b5,,0.118164,-0.080566,0.98291,,,-0.244141,,,,,,,-3.96057,-7.7948,-125.25
01:22:49.995,eb:33:2e:f9:57:b5,,0.119141,-0.080566,0.98291,,,-0.244141,,,,,,,-3.96057,-7.7948,-125.25
01:22:50.027,eb:33:2e:f9:57:b5,,0.118652,-0.07959,0.981934,,0.061035,-0.183105,,,,,,,-3.96057,-7.7948,-125.25
01:22:50.086,eb:33:2e:f9:57:b5,,0.118164,-0.080078,0.981934,,,-0.244141,,,,,,,-3.96057,-7.7948,-125.25
01:22:50.139,eb:33:2e:f9:57:b5,,0.118652,-0.080566,0.982422,,,-0.183105,,,,,,,-3.96057,-7.7948,-125.25
01:22:50.170,eb:33:2e:f9:57:b5,,0.118652,-0.07959,0.981934,,,-0.183105,,,,,,,-3.96057,-7.7948,-125.25
01:22:50.206,eb:33:2e:f9:57:b5,,0.119141,-0.080078,0.981934,,,-0.183105,,,,,,,-3.96057,-7.7948,-125.25
01:22:50.245,eb:33:2e:f9:57:b5,,0.118164,-0.080078,0.982422,,,-0.183105,,,,,,,-3.96057,-7.7948,-125.25
01:22:50.265,eb:33:2e:f9:57:b5,,0.118652,-0.081055,0.981934,,,-0.183105,,,,,,,-3.96057,-7.7948,-125.25
01:22:50.325,eb:33:2e:f9:57:b5,,0.119141,-0.07959,0.981445,,,-0.183105,,,,,,,-3.96057,-7.7948,-125.25
01:22:50.355,eb:33:2e:f9:57:b5,,0.118164,-0.079102,0.981934,,0.061035,-0.183105,,,,,,,-3.96057,-7.7948,-125.25
01:22:50.386,eb:33:2e:f9:57:b5,,0.118652,-0.080078,0.981445,,,-0.244141,,,,,,,-3.96057,-7.7948,-125.25
01:22:50.446,eb:33:2e:f9:57:b5,,0.118164,-0.07959,0.982422,,,-0.244141,,,,,,,-3.96057,-7.7948,-125.25
01:22:50.476,eb:33:2e:f9:57:b5,,0.118164,-0.080078,0.982422,,,-0.183105,,,,,,,-3.96057,-7.7948,-125.25
01:22:50.506,eb:33:2e:f9:57:b5,,0.118164,-0.080078,0.981934,,,-0.244141,,,,,,,-3.96057,-7.7948,-125.25
01:22:50.566,eb:33:2e:f9:57:b5,,0.118652,-0.080078,0.981934,,,-0.183105,,,,,,,-3.96057,-7.7948,-125.25
01:22:50.596,eb:33:2e:f9:57:b5,,0.119141,-0.07959,0.982422,-0.061035,,-0.183105,,,,,,,-3.96057,-7.7948,-125.25
01:22:50.626,eb:33:2e:f9:57:b5,,0.119629,-0.080078,0.981445,,,-0.183105,,,,,,,-3.96057,-7.7948,-125.25
01:22:50.685,eb:33:2e:f9:57:b5,,0.118652,-0.080078,0.981445,,,-0.183105,,,,,,,-3.96057,-7.7948,-125.25
01:22:50.715,eb:33:2e:f9:57:b5,,0.118164,-0.080078,0.981934,,,-0.244141,,,,,,,-3.96057,-7.7948,-125.25
01:22:50.775,eb:33:2e:f9:57:b5,,0.119629,-0.080566,0.981934,-0.061035,,-0.183105,,,,,,,-3.96057,-7.7948,-125.25
01:22:50.806,eb:33:2e:f9:57:b5,,0.119141,-0.080078,0.982422,,,-0.183105,,,,,,,-3.96057,-7.7948,-125.25
01:22:50.836,eb:33:2e:f9:57:b5,,0.118652,-0.080078,0.982422,,,-0.183105,,,,,,,-3.96057,-7.7948,-125.25
01:22:50.896,eb:33:2e:f9:57:b5,,0.118652,-0.080078,0.982422,,,-0.183105,,,,,,,-3.96057,-7.7948,-125.25
01:22:50.956,eb:33:2e:f9:57:b5,,0.119141,-0.080078,0.981934,,,-0.244141,,,,,,,-3.96057,-7.7948,-125.25
01:22:50.976,eb:33:2e:f9:57:b5,,0.119629,-0.080078,0.981934,,,-0.244141,,,,,,,-3.96057,-7.7948,-125.25
01:22:51.016,eb:33:2e:f9:57:b5,,0.118164,-0.080566,0.981934,,,-0.183105,,,,,,,-3.96057,-7.7948,-125.25
01:22:51.047,eb:33:2e:f9:57:b5,,0.119141,-0.07959,0.981445,,,-0.244141,,,,,,,-3.96057,-7.7948,-125.25
01:22:51.077,eb:33:2e:f9:57:b5,,0.118652,-0.07959,0.981934,,,-0.183105,,,,,,,-3.96057,-7.7948,-125.25
01:22:51.135,eb:33:2e:f9:57:b5,,0.118164,-0.080078,0.981445,,,-0.183105,,,,,,,-3.96057,-7.7948,-125.25
01:22:51.165,eb:33:2e:f9:57:b5,,0.119141,-0.07959,0.981934,-0.061035,,-0.183105,,,,,,,-3.96057,-7.7948,-125.25
01:22:51.195,eb:33:2e:f9:57:b5,,0.118164,-0.079102,0.982422,,,-0.183105,,,,,,,-3.96057,-7.7948,-125.25
01:22:51.255,eb:33:2e:f9:57:b5,,0.119141,-0.080566,0.981445,,,-0.183105,,,,,,,-3.96057,-7.7948,-125.25
01:22:51.286,eb:33:2e:f9:57:b5,,0.118652,-0.080078,0.98291,-0.061035,,-0.244141,,,,,,,-3.96057,-7.7948,-125.25
01:22:51.317,eb:33:2e:f9:57:b5,,0.119141,-0.07959,0.982422,,,-0.244141,,,,,,,-3.96057,-7.7948,-125.25
01:22:51.376,eb:33:2e:f9:57:b5,,0.119141,-0.080078,0.982422,,0.061035,-0.183105,,,,,,,-3.96057,-7.7948,-125.25
01:22:51.406,eb:33:2e:f9:57:b5,,0.119141,-0.080078,0.982422,,,-0.244141,,,,,,,-3.96057,-7.7948,-125.25
01:22:51.436,eb:33:2e:f9:57:b5,,0.118652,-0.080078,0.982422,-0.061035,,-0.183105,,,,,,,-3.96057,-7.7948,-125.25
01:22:51.497,eb:33:2e:f9:57:b5,,0.118652,-0.080566,0.981445,,,-0.244141,,,,,,,-3.96057,-7.7948,-125.25
01:22:51.531,eb:33:2e:f9:57:b5,,0.118652,-0.080078,0.982422,,,-0.183105,,,,,,,-3.96057,-7.7948,-125.25
01:22:51.549,eb:33:2e:f9:57:b5,,0.119141,-0.080078,0.981934,,,-0.244141,,,,,,,-3.96057,-7.7948,-125.25
01:22:51.613,eb:33:2e:f9:57:b5,,0.119141,-0.079102,0.981445,-0.061035,,-0.183105,,,,,,,-3.96057,-7.7948,-125.25
01:22:51.644,eb:33:2e:f9:57:b5,,0.118652,-0.079102,0.981934,,0.061035,-0.183105,,,,,,,-3.96057,-7.7948,-125.25
01:22:51.677,eb:33:2e:f9:57:b5,,0.119141,-0.07959,0.981445,,,-0.244141,,,,,,,-3.96057,-7.7948,-125.25
01:22:51.723,eb:33:2e:f9:57:b5,,0.118652,-0.080078,0.981934,,,-0.183105,,,,,,,-3.96057,-7.7948,-125.25
01:22:51.757,eb:33:2e:f9:57:b5,,0.118652,-0.080078,0.982422,,0.061035,-0.244141,,,,,,,-3.96057,-7.7948,-125.25
01:22:51.786,eb:33:2e:f9:57:b5,,0.118164,-0.080566,0.98291,,0.061035,-0.244141,,,,,,,-3.96057,-7.7948,-125.25
01:22:51.853,eb:33:2e:f9:57:b5,,0.119141,-0.080078,0.982422,,,-0.183105,,,,,,,-3.96057,-7.7948,-125.25
01:22:51.883,eb:33:2e:f9:57:b5,,0.119629,-0.080566,0.981934,,,-0.183105,,,,,,,-3.96057,-7.7948,-125.25
01:22:51.915,eb:33:2e:f9:57:b5,,0.118652,-0.080566,0.98291,-0.061035,,-0.244141,,,,,,,-3.96057,-7.7948,-125.25
01:22:51.976,eb:33:2e:f9:57:b5,,0.119141,-0.080566,0.983398,,,-0.183105,,,,,,,-3.96057,-7.7948,-125.25
01:22:52.024,eb:33:2e:f9:57:b5,,0.119141,-0.07959,0.982422,,0.061035,-0.244141,,,,,,,-3.96057,-7.7948,-125.25
01:22:52.062,eb:33:2e:f9:57:b5,,0.118164,-0.080078,0.982422,,,-0.183105,,,,,,,-3.96057,-7.7948,-125.25
01:22:52.101,eb:33:2e:f9:57:b5,,0.119141,-0.080078,0.981445,,0.061035,-0.244141,,,,,,,-3.96057,-7.7948,-125.25
01:22:52.128,eb:33:2e:f9:57:b5,,0.118652,-0.080078,0.982422,,,-0.183105,,,,,,,-3.96057,-7.7948,-125.25
01:22:52.154,eb:33:2e:f9:57:b5,,0.119141,-0.080078,0.981934,,,-0.244141,,,,,,,-3.96057,-7.7948,-125.25
01:22:52.242,eb:33:2e:f9:57:b5,,0.119141,-0.080566,0.981934,,,-0.183105,,,,,,,-3.96057,-7.7948,-125.25
01:22:52.277,eb:33:2e:f9:57:b5,,0.119141,-0.080566,0.981445,-0.061035,,-0.244141,,,,,,,-3.96057,-7.7948,-125.25
01:22:52.310,eb:33:2e:f9:57:b5,,0.118652,-0.080078,0.981934,-0.061035,,-0.183105,,,,,,,-3.96057,-7.7948,-125.25
01:22:52.326,eb:33:2e:f9:57:b5,,0.119141,-0.07959,0.980957,,,-0.244141,,,,,,,-3.96057,-7.7948,-125.25
01:22:52.360,eb:33:2e:f9:57:b5,,0.119141,-0.080078,0.982422,,,-0.183105,,,,,,,-3.96057,-7.7948,-125.25
01:22:52.427,eb:33:2e:f9:57:b5,,0.118652,-0.079102,0.982422,,,-0.244141,,,,,,,-3.96057,-7.7948,-125.25
01:22:52.451,eb:33:2e:f9:57:b5,,0.118652,-0.080078,0.98291,,,-0.183105,,,,,,,-3.96057,-7.7948,-125.25
01:22:52.477,eb:33:2e:f9:57:b5,,0.118652,-0.080566,0.981934,,,-0.183105,,,,,,,-3.96057,-7.7948,-125.25
01:22:52.546,eb:33:2e:f9:57:b5,,0.119141,-0.07959,0.981934,,0.061035,-0.183105,,,,,,,-3.96057,-7.7948,-125.25
01:22:52.602,eb:33:2e:f9:57:b5,,0.118652,-0.080078,0.981934,-0.061035,0.061035,-0.244141,,,,,,,-3.96057,-7.7948,-125.25
01:22:52.635,eb:33:2e:f9:57:b5,,0.118652,-0.080078,0.982422,,,-0.183105,,,,,,,-3.96057,-7.7948,-125.25
01:22:52.660,eb:33:2e:f9:57:b5,,0.119629,-0.080078,0.981934,,0.061035,-0.244141,,,,,,,-3.96057,-7.7948,-125.25
01:22:52.693,eb:33:2e:f9:57:b5,,0.119629,-0.07959,0.981934,,,-0.183105,,,,,,,-3.96057,-7.7948,-125.25
01:22:52.727,eb:33:2e:f9:57:b5,,0.118652,-0.080078,0.981445,,,-0.244141,,,,,,,-3.96057,-7.7948,-125.25
01:22:52.811,eb:33:2e:f9:57:b5,,0.119629,-0.079102,0.981934,-0.061035,,-0.244141,,,,,,,-3.96057,-7.7948,-125.25
01:22:52.843,eb:33:2e:f9:57:b5,,0.119141,-0.07959,0.982422,,0.061035,-0.183105,,,,,,,-3.96057,-7.7948,-125.25
01:22:52.871,eb:33:2e:f9:57:b5,,0.119141,-0.07959,0.98291,,,-0.183105,,,,,,,-3.96057,-7.7948,-125.25
01:22:52.903,eb:33:2e:f9:57:b5,,0.118652,-0.080078,0.981934,,,-0.244141,,,,,,,-3.96057,-7.7948,-125.25
01:22:52.934,eb:33:2e:f9:57:b5,,0.119141,-0.080078,0.982422,-0.061035,0.061035,-0.183105,,,,,,,-3.96057,-7.7948,-125.25
01:22:52.960,eb:33:2e:f9:57:b5,,0.119141,-0.07959,0.982422,,,-0.183105,,,,,,,-3.96057,-7.7948,-125.25
01:22:53.028,eb:33:2e:f9:57:b5,,0.119141,-0.080078,0.982422,,,-0.183105,,,,,,,-3.96057,-7.80029,-125.25
01:22:53.054,eb:33:2e:f9:57:b5,,0.119141,-0.080566,0.981445,,,-0.183105,,,,,,,-3.96057,-7.80029,-125.25
01:22:53.083,eb:33:2e:f9:57:b5,,0.118652,-0.07959,0.981445,,,-0.244141,,,,,,,-3.96057,-7.80029,-125.25
01:22:53.141,eb:33:2e:f9:57:b5,,0.119141,-0.079102,0.982422,,,-0.183105,,,,,,,-3.96057,-7.80029,-125.25
01:22:53.173,eb:33:2e:f9:57:b5,,0.118164,-0.080566,0.982422,,,-0.244141,,,,,,,-3.96057,-7.80029,-125.25
01:22:53.208,eb:33:2e:f9:57:b5,,0.119141,-0.07959,0.982422,,,-0.244141,,,,,,,-3.96057,-7.80029,-125.25
01:22:53.252,eb:33:2e:f9:57:b5,,0.118164,-0.07959,0.981934,,,-0.183105,,,,,,,-3.96057,-7.80029,-125.25
01:22:53.301,eb:33:2e:f9:57:b5,,0.118652,-0.080078,0.981934,,,-0.183105,,,,,,,-3.96057,-7.7948,-125.25
01:22:53.323,eb:33:2e:f9:57:b5,,0.119141,-0.080566,0.981934,,,-0.183105,,,,,,,-3.96057,-7.7948,-125.25
01:22:53.380,eb:33:2e:f9:57:b5,,0.119629,-0.080078,0.981934,,,-0.183105,,,,,,,-3.96057,-7.7948,-125.25
01:22:53.412,eb:33:2e:f9:57:b5,,0.119141,-0.080078,0.981934,,,-0.183105,,,,,,,-3.96057,-7.80029,-125.25
01:22:53.444,eb:33:2e:f9:57:b5,,0.119629,-0.080078,0.981445,,,-0.183105,,,,,,,-3.96057,-7.80029,-125.25
01:22:53.509,eb:33:2e:f9:57:b5,,0.119141,-0.080566,0.982422,,,-0.183105,,,,,,,-3.96057,-7.80029,-125.25
01:22:53.527,eb:33:2e:f9:57:b5,,0.118164,-0.080078,0.981934,-0.061035,,-0.244141,,,,,,,-3.96057,-7.80029,-125.25
01:22:53.555,eb:33:2e:f9:57:b5,,0.118652,-0.080566,0.981445,-0.061035,,-0.244141,,,,,,,-3.96057,-7.80029,-125.25
01:22:53.619,eb:33:2e:f9:57:b5,,0.118652,-0.079102,0.981934,,,-0.183105,,,,,,,-3.96057,-7.80029,-125.25
01:22:53.649,eb:33:2e:f9:57:b5,,0.119141,-0.080566,0.981445,,,-0.183105,,,,,,,-3.96057,-7.80029,-125.25
01:22:53.712,eb:33:2e:f9:57:b5,,0.118652,-0.07959,0.982422,,0.061035,-0.183105,,,,,,,-3.96057,-7.80029,-125.25
01:22:53.748,eb:33:2e:f9:57:b5,,0.118652,-0.079102,0.981934,,,-0.183105,,,,,,,-3.96057,-7.80029,-125.25
01:22:53.776,eb:33:2e:f9:57:b5,,0.119141,-0.080078,0.981934,,,-0.244141,,,,,,,-3.96057,-7.80029,-125.25
01:22:53.824,eb:33:2e:f9:57:b5,,0.118164,-0.07959,0.981934,-0.061035,,-0.183105,,,,,,,-3.96057,-7.80029,-125.25
01:22:53.871,eb:33:2e:f9:57:b5,,0.119141,-0.080078,0.98291,,,-0.183105,,,,,,,-3.96057,-7.80029,-125.25
01:22:53.894,eb:33:2e:f9:57:b5,,0.118652,-0.07959,0.981445,,,-0.183105,,,,,,,-3.96057,-7.80029,-125.25
01:22:53.982,eb:33:2e:f9:57:b5,,0.118652,-0.079102,0.982422,,,-0.183105,,,,,,,-3.96057,-7.80029,-125.25
01:22:54.013,eb:33:2e:f9:57:b5,,0.119141,-0.079102,0.981934,,,-0.183105,,,,,,,-3.96057,-7.80029,-125.25
01:22:54.031,eb:33:2e:f9:57:b5,,0.118652,-0.080566,0.982422,,,-0.183105,,,,,,,-3.96057,-7.80029,-125.25
01:22:54.077,eb:33:2e:f9:57:b5,,0.118652,-0.080078,0.981934,,,-0.244141,,,,,,,-3.96057,-7.80029,-125.25
01:22:54.093,eb:33:2e:f9:57:b5,,0.119141,-0.079102,0.981445,,,-0.244141,,,,,,,-3.96057,-7.80029,-125.25
01:22:54.124,eb:33:2e:f9:57:b5,,0.119141,-0.080078,0.980957,,,-0.183105,,,,,,,-3.96057,-7.80029,-125.25
01:22:54.189,eb:33:2e:f9:57:b5,,0.119141,-0.081055,0.982422,,,-0.183105,,,,,,,-3.96057,-7.80029,-125.25
01:22:54.220,eb:33:2e:f9:57:b5,,0.119141,-0.080078,0.982422,,,-0.244141,,,,,,,-3.96057,-7.80029,-125.25
01:22:54.251,eb:33:2e:f9:57:b5,,0.119629,-0.07959,0.981445,,,-0.183105,,,,,,,-3.96057,-7.80029,-125.25
01:22:54.315,eb:33:2e:f9:57:b5,,0.118652,-0.080078,0.983398,-0.061035,,-0.183105,,,,,,,-3.96057,-7.80029,-125.25
01:22:54.333,eb:33:2e:f9:57:b5,,0.118652,-0.080566,0.982422,,,-0.244141,,,,,,,-3.96057,-7.80029,-125.25
01:22:54.364,eb:33:2e:f9:57:b5,,0.119141,-0.080078,0.981934,,,-0.244141,,,,,,,-3.96057,-7.80029,-125.25
01:22:54.428,eb:33:2e:f9:57:b5,,0.119629,-0.080078,0.982422,,0.061035,-0.183105,,,,,,,-3.96057,-7.80029,-125.25
01:22:54.460,eb:33:2e:f9:57:b5,,0.119141,-0.080078,0.98291,,0.061035,-0.244141,,,,,,,-3.96057,-7.80029,-125.25
01:22:54.492,eb:33:2e:f9:57:b5,,0.119629,-0.07959,0.981934,,,-0.305176,,,,,,,-3.96057,-7.80029,-125.25
01:22:54.555,eb:33:2e:f9:57:b5,,0.119141,-0.07959,0.982422,,,-0.244141,,,,,,,-3.96057,-7.80029,-125.25
01:22:54.587,eb:33:2e:f9:57:b5,,0.119629,-0.07959,0.982422,,0.061035,-0.183105,,,,,,,-3.96057,-7.80029,-125.25
01:22:54.609,eb:33:2e:f9:57:b5,,0.119141,-0.080566,0.981934,,,-0.244141,,,,,,,-3.96057,-7.80029,-125.25
01:22:54.667,eb:33:2e:f9:57:b5,,0.119141,-0.080566,0.982422,,,-0.183105,,,,,,,-3.96057,-7.80029,-125.25
01:22:54.706,eb:33:2e:f9:57:b5,,0.119141,-0.080078,0.982422,,,-0.12207,,,,,,,-3.96057,-7.80029,-125.25
01:22:54.732,eb:33:2e:f9:57:b5,,0.119141,-0.080566,0.982422,,,-0.183105,,,,,,,-3.96057,-7.80029,-125.25
01:22:54.797,eb:33:2e:f9:57:b5,,0.119141,-0.080078,0.981934,,0.061035,-0.183105,,,,,,,-3.96057,-7.80029,-125.25
01:22:54.826,eb:33:2e:f9:57:b5,,0.119141,-0.07959,0.98291,,,-0.183105,,,,,,,-3.96057,-7.80029,-125.25
01:22:54.857,eb:33:2e:f9:57:b5,,0.119141,-0.080078,0.982422,,,-0.244141,,,,,,,-3.96057,-7.80029,-125.25
01:22:54.910,eb:33:2e:f9:57:b5,,0.118652,-0.07959,0.981934,,,-0.183105,,,,,,,-3.96057,-7.80029,-125.25
01:22:54.953,eb:33:2e:f9:57:b5,,0.119141,-0.080078,0.982422,-0.061035,0.061035,-0.244141,,,,,,,-3.96057,-7.80029,-125.25
01:22:55.005,eb:33:2e:f9:57:b5,,0.118164,-0.080078,0.981445,,,-0.183105,,,,,,,-3.96057,-7.80029,-125.25
01:22:55.033,eb:33:2e:f9:57:b5,,0.118652,-0.080078,0.981934,,,-0.183105,,,,,,,-3.96057,-7.80029,-125.25
01:22:55.081,eb:33:2e:f9:57:b5,,0.119141,-0.07959,0.981934,,,-0.183105,,,,,,,-3.96057,-7.80029,-125.25
01:22:55.116,eb:33:2e:f9:57:b5,,0.119141,-0.080078,0.982422,,,-0.183105,,,,,,,-3.96057,-7.80029,-125.25
01:22:55.144,eb:33:2e:f9:57:b5,,0.118652,-0.080566,0.981445,,0.061035,-0.244141,,,,,,,-3.96057,-7.80029,-125.25
01:22:55.176,eb:33:2e:f9:57:b5,,0.118652,-0.07959,0.981934,-0.061035,,-0.244141,,,,,,,-3.96057,-7.80029,-125.25
01:22:55.240,eb:33:2e:f9:57:b5,,0.118652,-0.080078,0.981934,,,-0.244141,,,,,,,-3.96057,-7.80029,-125.25
01:22:55.277,eb:33:2e:f9:57:b5,,0.118652,-0.080078,0.982422,,,-0.244141,,,,,,,-3.96057,-7.80029,-125.25
01:22:55.306,eb:33:2e:f9:57:b5,,0.118164,-0.07959,0.981934,-0.061035,,-0.183105,,,,,,,-3.96057,-7.80029,-125.25
01:22:55.368,eb:33:2e:f9:57:b5,,0.118652,-0.080078,0.982422,,,-0.244141,,,,,,,-3.96057,-7.80029,-125.25
01:22:55.399,eb:33:2e:f9:57:b5,,0.119141,-0.080078,0.981934,,,-0.183105,,,,,,,-3.96057,-7.80029,-125.25
01:22:55.416,eb:33:2e:f9:57:b5,,0.119141,-0.080078,0.981934,,,-0.183105,,,,,,,-3.96057,-7.80029,-125.25
01:22:55.479,eb:33:2e:f9:57:b5,,0.119141,-0.080566,0.981934,,,-0.183105,,,,,,,-3.96057,-7.80029,-125.25
