Time,Device name,Chip Time(),Acceleration X(g),Acceleration Y(g),Acceleration Z(g),Angular velocity X(°/s),Angular velocity Y(°/s),Angular velocity Z(°/s),ShiftX(mm),ShiftY(mm),ShiftZ(mm),SpeedX(mm/s),SpeedY(mm/s),SpeedZ(mm/s),Angle X(°),Angle Y(°),Angle Z(°)
 13:45:15.700,eb:33:2e:f9:57:b5, 2015-01-01 00:09:26.195, -0.002, 0.029, 0.994, 0.427, 0, 0.305, , , , , , , 1.725, 0.264, -104.046,
 13:45:15.701,eb:33:2e:f9:57:b5, 2015-01-01 00:09:26.195, -0.001, 0.028, 0.994, 0.366, -0.122, 0.244, , , , , , , 1.725, 0.264, -104.046,
 13:45:15.701,eb:33:2e:f9:57:b5, 2015-01-01 00:09:26.195, -0.002, 0.029, 0.995, 0.244, -0.061, 0.244, , , , , , , 1.725, 0.258, -104.046,
 13:45:15.701,eb:33:2e:f9:57:b5, 2015-01-01 00:09:26.195, -0.002, 0.029, 0.995, 0.183, -0.122, 0.183, , , , , , , 1.725, 0.258, -104.046,
 13:45:15.701,eb:33:2e:f9:57:b5, 2015-01-01 00:09:26.195, 0, 0.029, 0.996, 0.061, -0.122, 0.122, , , , , , , 1.725, 0.258, -104.046,
 13:45:15.701,eb:33:2e:f9:57:b5, 2015-01-01 00:09:26.195, 0.001, 0.028, 0.997, 0, -0.061, 0.122, , , , , , , 1.725, 0.258, -104.046,
 13:45:15.701,eb:33:2e:f9:57:b5, 2015-01-01 00:09:26.195, 0.005, 0.025, 1.003, 0.183, 0, 0.061, , , , , , , 1.725, 0.258, -104.046,
 13:45:15.701,eb:33:2e:f9:57:b5, 2015-01-01 00:09:26.195, 0, 0.022, 1.006, 0.488, 0.305, 0.183, , , , , , , 1.725, 0.258, -104.046,
 13:45:15.857,eb:33:2e:f9:57:b5, 2015-01-01 00:09:27.135, 0.002, 0.022, 1.006, 0.854, 0.427, 0.244, , , , , , , 1.725, 0.258, -104.046,
 13:45:15.857,eb:33:2e:f9:57:b5, 2015-01-01 00:09:27.135, -0.001, 0.024, 1.004, 1.099, 0.671, 0.366, , , , , , , 1.725, 0.258, -104.046,
 13:45:15.857,eb:33:2e:f9:57:b5, 2015-01-01 00:09:27.135, 0, 0.023, 1.003, 1.404, 0.671, 0.427, , , , , , , 1.725, 0.258, -104.046,
 13:45:15.857,eb:33:2e:f9:57:b5, 2015-01-01 00:09:27.135, 0.002, 0.023, 1.007, 1.709, 0.977, 0.366, , , , , , , 1.725, 0.258, -104.046,
 13:45:15.857,eb:33:2e:f9:57:b5, 2015-01-01 00:09:27.135, -0.006, 0.024, 1.003, 1.892, 1.099, 0.61, , , , , , , 1.725, 0.258, -104.046,
 13:45:15.857,eb:33:2e:f9:57:b5, 2015-01-01 00:09:27.135, -0.009, 0.027, 0.995, 2.014, 0.916, 0.61, , , , , , , 1.725, 0.258, -104.046,
 13:45:15.857,eb:33:2e:f9:57:b5, 2015-01-01 00:09:27.135, -0.006, 0.027, 0.992, 1.953, 0.671, 0.549, , , , , , , 1.725, 0.258, -104.046,
 13:45:15.857,eb:33:2e:f9:57:b5, 2015-01-01 00:09:27.135, -0.001, 0.027, 0.994, 1.892, 0.427, 0.488, , , , , , , 1.725, 0.258, -104.046,
 13:45:15.859,eb:33:2e:f9:57:b5, 2015-01-01 00:09:27.135, -0.002, 0.03, 0.997, 1.831, 0.488, 0.427, , , , , , , 1.725, 0.258, -104.046,
 13:45:15.860,eb:33:2e:f9:57:b5, 2015-01-01 00:09:27.135, -0.004, 0.029, 0.995, 1.77, 0.366, 0.488, , , , , , , 1.725, 0.258, -104.046,
 13:45:15.860,eb:33:2e:f9:57:b5, 2015-01-01 00:09:27.135, -0.003, 0.03, 0.993, 1.648, 0.305, 0.488, , , , , , , 1.719, 0.258, -104.046,
 13:45:15.860,eb:33:2e:f9:57:b5, 2015-01-01 00:09:27.135, -0.002, 0.032, 0.993, 1.526, 0.244, 0.427, , , , , , , 1.719, 0.258, -104.046,
 13:45:15.860,eb:33:2e:f9:57:b5, 2015-01-01 00:09:27.135, -0.001, 0.031, 0.994, 1.343, 0.244, 0.366, , , , , , , 1.719, 0.258, -104.046,
 13:45:15.860,eb:33:2e:f9:57:b5, 2015-01-01 00:09:27.135, -0.002, 0.032, 0.994, 1.221, 0.244, 0.366, , , , , , , 1.719, 0.258, -104.046,
 13:45:15.860,eb:33:2e:f9:57:b5, 2015-01-01 00:09:27.135, -0.002, 0.031, 0.994, 1.038, 0.244, 0.183, , , , , , , 1.719, 0.253, -104.046,
 13:45:15.860,eb:33:2e:f9:57:b5, 2015-01-01 00:09:27.135, 0, 0.033, 0.994, 0.854, 0.244, 0.122, , , , , , , 1.719, 0.253, -104.046,
 13:45:16.040,eb:33:2e:f9:57:b5, 2015-01-01 00:09:27.135, -0.001, 0.032, 0.995, 0.793, 0.244, 0.183, , , , , , , 1.719, 0.253, -104.046,
 13:45:16.040,eb:33:2e:f9:57:b5, 2015-01-01 00:09:27.135, 0, 0.032, 0.997, 0.671, 0.366, 0.122, , , , , , , 1.719, 0.253, -104.046,
 13:45:16.040,eb:33:2e:f9:57:b5, 2015-01-01 00:09:27.135, -0.002, 0.032, 0.996, 0.61, 0.427, 0.061, , , , , , , 1.719, 0.253, -104.046,
 13:45:16.040,eb:33:2e:f9:57:b5, 2015-01-01 00:09:27.135, -0.001, 0.032, 0.996, 0.549, 0.427, 0.061, , , , , , , 1.719, 0.253, -104.046,
 13:45:16.040,eb:33:2e:f9:57:b5, 2015-01-01 00:09:27.135, -0.003, 0.031, 0.995, 0.427, 0.488, 0.061, , , , , , , 1.719, 0.253, -104.046,
 13:45:16.040,eb:33:2e:f9:57:b5, 2015-01-01 00:09:27.135, -0.005, 0.031, 0.994, 0.366, 0.366, 0.122, , , , , , , 1.719, 0.253, -104.046,
 13:45:16.040,eb:33:2e:f9:57:b5, 2015-01-01 00:09:27.135, -0.004, 0.03, 0.993, 0.305, 0.183, 0.122, , , , , , , 1.719, 0.253, -104.046,
 13:45:16.040,eb:33:2e:f9:57:b5, 2015-01-01 00:09:27.135, -0.003, 0.031, 0.995, 0.122, 0.061, 0.122, , , , , , , 1.719, 0.253, -104.046,
 13:45:16.127,eb:33:2e:f9:57:b5, 2015-01-01 00:09:27.135, -0.003, 0.031, 0.995, 0.061, 0, 0.061, , , , , , , 1.719, 0.253, -104.046,
 13:45:16.127,eb:33:2e:f9:57:b5, 2015-01-01 00:09:27.135, -0.002, 0.03, 0.996, 0, 0, 0.061, , , , , , , 1.719, 0.253, -104.046,
 13:45:16.127,eb:33:2e:f9:57:b5, 2015-01-01 00:09:27.135, 0, 0.029, 0.997, 0.061, 0, 0.061, , , , , , , 1.719, 0.253, -104.046,
 13:45:16.127,eb:33:2e:f9:57:b5, 2015-01-01 00:09:27.135, 0, 0.028, 1, 0.122, 0.061, 0.061, , , , , , , 1.719, 0.253, -104.046,
 13:45:16.127,eb:33:2e:f9:57:b5, 2015-01-01 00:09:27.135, -0.003, 0.028, 0.999, 0.183, 0.122, 0.122, , , , , , , 1.719, 0.253, -104.046,
 13:45:16.127,eb:33:2e:f9:57:b5, 2015-01-01 00:09:27.135, -0.003, 0.03, 0.997, 0.183, 0.122, 0.061, , , , , , , 1.719, 0.253, -104.046,
 13:45:16.127,eb:33:2e:f9:57:b5, 2015-01-01 00:09:27.135, -0.002, 0.029, 0.998, 0.244, 0.061, 0.122, , , , , , , 1.719, 0.253, -104.046,
 13:45:16.127,eb:33:2e:f9:57:b5, 2015-01-01 00:09:27.135, 0, 0.027, 0.998, 0.305, 0.061, 0.183, , , , , , , 1.719, 0.253, -104.046,
 13:45:16.129,eb:33:2e:f9:57:b5, 2015-01-01 00:09:27.135, -0.001, 0.028, 1, 0.366, 0.183, 0.244, , , , , , , 1.719, 0.253, -104.046,
 13:45:16.129,eb:33:2e:f9:57:b5, 2015-01-01 00:09:27.135, -0.004, 0.029, 0.998, 0.427, 0.061, 0.366, , , , , , , 1.719, 0.253, -104.046,
 13:45:16.129,eb:33:2e:f9:57:b5, 2015-01-01 00:09:27.135, -0.004, 0.031, 0.997, 0.305, 0.122, 0.305, , , , , , , 1.719, 0.247, -104.046,
 13:45:16.130,eb:33:2e:f9:57:b5, 2015-01-01 00:09:27.135, -0.004, 0.031, 0.994, 0.305, 0, 0.305, , , , , , , 1.719, 0.247, -104.046,
 13:45:16.130,eb:33:2e:f9:57:b5, 2015-01-01 00:09:27.135, -0.003, 0.031, 0.995, 0.244, -0.061, 0.244, , , , , , , 1.719, 0.247, -104.046,
 13:45:16.130,eb:33:2e:f9:57:b5, 2015-01-01 00:09:27.135, -0.003, 0.032, 0.996, 0.244, -0.122, 0.244, , , , , , , 1.719, 0.247, -104.046,
 13:45:16.130,eb:33:2e:f9:57:b5, 2015-01-01 00:09:27.135, -0.002, 0.031, 0.997, 0.122, -0.061, 0.305, , , , , , , 1.719, 0.247, -104.046,
 13:45:16.130,eb:33:2e:f9:57:b5, 2015-01-01 00:09:27.135, -0.003, 0.032, 0.996, 0.061, -0.061, 0.244, , , , , , , 1.719, 0.247, -104.046,
 13:45:16.130,eb:33:2e:f9:57:b5, 2015-01-01 00:09:27.135, -0.002, 0.032, 0.994, 0, -0.183, 0.183, , , , , , , 1.719, 0.247, -104.046,
 13:45:16.130,eb:33:2e:f9:57:b5, 2015-01-01 00:09:27.135, 0, 0.032, 0.996, 0.183, -0.183, 0.305, , , , , , , 1.714, 0.242, -104.046,
 13:45:16.130,eb:33:2e:f9:57:b5, 2015-01-01 00:09:27.135, -0.001, 0.032, 0.996, 0.061, -0.183, 0.244, , , , , , , 1.714, 0.242, -104.046,
 13:45:16.130,eb:33:2e:f9:57:b5, 2015-01-01 00:09:27.135, -0.001, 0.033, 0.996, 0, -0.183, 0.183, , , , , , , 1.714, 0.242, -104.046,
 13:45:16.131,eb:33:2e:f9:57:b5, 2015-01-01 00:09:27.135, -0.001, 0.032, 0.995, 0, -0.183, 0.183, , , , , , , 1.714, 0.242, -104.046,
 13:45:16.131,eb:33:2e:f9:57:b5, 2015-01-01 00:09:27.135, 0, 0.032, 0.996, -0.061, -0.061, 0.183, , , , , , , 1.714, 0.242, -104.046,
 13:45:16.131,eb:33:2e:f9:57:b5, 2015-01-01 00:09:27.135, 0, 0.032, 0.998, -0.122, 0, 0.183, , , , , , , 1.714, 0.242, -104.046,
 13:45:16.131,eb:33:2e:f9:57:b5, 2015-01-01 00:09:27.135, 0, 0.03, 1, -0.061, 0.061, 0.122, , , , , , , 1.714, 0.242, -104.046,
 13:45:16.133,eb:33:2e:f9:57:b5, 2015-01-01 00:09:27.135, -0.001, 0.03, 0.998, -0.061, 0.183, 0.122, , , , , , , 1.714, 0.242, -104.046,
 13:45:16.133,eb:33:2e:f9:57:b5, 2015-01-01 00:09:27.135, -0.003, 0.031, 0.997, -0.061, 0.305, 0.122, , , , , , , 1.714, 0.242, -104.046,
 13:45:16.133,eb:33:2e:f9:57:b5, 2015-01-01 00:09:27.135, -0.003, 0.03, 0.996, -0.061, 0.183, 0.061, , , , , , , 1.714, 0.242, -104.046,
 13:45:16.133,eb:33:2e:f9:57:b5, 2015-01-01 00:09:27.135, -0.002, 0.03, 0.998, -0.061, 0.244, 0.061, , , , , , , 1.714, 0.242, -104.046,
 13:45:16.133,eb:33:2e:f9:57:b5, 2015-01-01 00:09:27.135, -0.003, 0.028, 0.998, 0, 0.183, 0.122, , , , , , , 1.714, 0.242, -104.046,
 13:45:16.133,eb:33:2e:f9:57:b5, 2015-01-01 00:09:27.135, -0.006, 0.029, 0.996, 0, 0.061, 0.183, , , , , , , 1.714, 0.242, -104.046,
 13:45:16.133,eb:33:2e:f9:57:b5, 2015-01-01 00:09:27.135, -0.004, 0.03, 0.994, 0, 0, 0.183, , , , , , , 1.714, 0.242, -104.046,
 13:45:16.133,eb:33:2e:f9:57:b5, 2015-01-01 00:09:27.135, -0.003, 0.03, 0.995, 0, 0, 0.122, , , , , , , 1.714, 0.242, -104.046,
 13:45:16.152,eb:33:2e:f9:57:b5, 2015-01-01 00:09:27.135, -0.003, 0.03, 0.996, -0.061, -0.122, 0.122, , , , , , , 1.714, 0.242, -104.046,
 13:45:16.152,eb:33:2e:f9:57:b5, 2015-01-01 00:09:27.135, -0.001, 0.032, 0.995, 0.244, 0.061, 0.183, , , , , , , 1.714, 0.236, -104.046,
 13:45:16.152,eb:33:2e:f9:57:b5, 2015-01-01 00:09:27.135, 0, 0.033, 0.997, 0.244, 0.122, 0.183, , , , , , , 1.714, 0.236, -104.046,
 13:45:16.152,eb:33:2e:f9:57:b5, 2015-01-01 00:09:27.135, 0, 0.032, 0.999, 0.244, 0.244, 0.183, , , , , , , 1.714, 0.236, -104.046,
 13:45:16.152,eb:33:2e:f9:57:b5, 2015-01-01 00:09:27.135, -0.002, 0.031, 0.999, 0.305, 0.366, 0.183, , , , , , , 1.714, 0.236, -104.046,
 13:45:16.152,eb:33:2e:f9:57:b5, 2015-01-01 00:09:27.135, -0.002, 0.03, 1, 0.366, 0.427, 0.183, , , , , , , 1.714, 0.236, -104.046,
 13:45:16.152,eb:33:2e:f9:57:b5, 2015-01-01 00:09:27.135, -0.001, 0.029, 1.001, 0.488, 0.488, 0.183, , , , , , , 1.714, 0.236, -104.046,
 13:45:16.152,eb:33:2e:f9:57:b5, 2015-01-01 00:09:27.135, -0.002, 0.027, 1.001, 0.671, 0.488, 0.366, , , , , , , 1.714, 0.236, -104.046,
 13:45:16.173,eb:33:2e:f9:57:b5, 2015-01-01 00:09:27.135, -0.002, 0.029, 1, 0.793, 0.549, 0.366, , , , , , , 1.714, 0.236, -104.046,
 13:45:16.173,eb:33:2e:f9:57:b5, 2015-01-01 00:09:27.135, -0.003, 0.034, 0.994, 0.305, 0.305, 0.244, , , , , , , 1.714, 0.236, -104.052,
 13:45:16.173,eb:33:2e:f9:57:b5, 2015-01-01 00:09:27.135, -0.002, 0.034, 0.995, 0.305, 0.244, 0.183, , , , , , , 1.714, 0.236, -104.052,
 13:45:16.173,eb:33:2e:f9:57:b5, 2015-01-01 00:09:27.135, -0.001, 0.033, 0.996, 0.183, 0.305, 0.122, , , , , , , 1.714, 0.236, -104.052,
 13:45:16.173,eb:33:2e:f9:57:b5, 2015-01-01 00:09:27.135, -0.003, 0.033, 0.998, 0.122, 0.305, 0.122, , , , , , , 1.714, 0.236, -104.052,
 13:45:16.173,eb:33:2e:f9:57:b5, 2015-01-01 00:09:27.135, -0.004, 0.032, 0.997, 0.122, 0.305, 0.122, , , , , , , 1.714, 0.236, -104.052,
 13:45:16.173,eb:33:2e:f9:57:b5, 2015-01-01 00:09:27.135, -0.003, 0.031, 0.998, 0.122, 0.305, 0.122, , , , , , , 1.714, 0.231, -104.052,
 13:45:16.174,eb:33:2e:f9:57:b5, 2015-01-01 00:09:27.135, -0.002, 0.032, 0.998, 0.244, 0.366, 0.183, , , , , , , 1.714, 0.231, -104.052,
 13:45:16.241,eb:33:2e:f9:57:b5, 2015-01-01 00:09:27.135, -0.001, 0.03, 1, 0.366, 0.366, 0.183, , , , , , , 1.714, 0.231, -104.052,
 13:45:16.241,eb:33:2e:f9:57:b5, 2015-01-01 00:09:27.135, -0.002, 0.028, 1.001, 0.488, 0.549, 0.244, , , , , , , 1.714, 0.231, -104.052,
 13:45:16.241,eb:33:2e:f9:57:b5, 2015-01-01 00:09:27.135, -0.003, 0.029, 1.001, 0.61, 0.61, 0.244, , , , , , , 1.714, 0.231, -104.052,
 13:45:16.241,eb:33:2e:f9:57:b5, 2015-01-01 00:09:27.135, -0.004, 0.03, 1, 0.793, 0.671, 0.305, , , , , , , 1.714, 0.231, -104.052,
 13:45:16.241,eb:33:2e:f9:57:b5, 2015-01-01 00:09:27.135, -0.006, 0.031, 0.998, 0.793, 0.61, 0.366, , , , , , , 1.714, 0.231, -104.052,
 13:45:16.241,eb:33:2e:f9:57:b5, 2015-01-01 00:09:27.135, -0.005, 0.032, 0.996, 0.854, 0.549, 0.427, , , , , , , 1.714, 0.231, -104.052,
 13:45:16.241,eb:33:2e:f9:57:b5, 2015-01-01 00:09:27.135, -0.005, 0.033, 0.996, 0.732, 0.488, 0.305, , , , , , , 1.714, 0.231, -104.052,
 13:45:16.241,eb:33:2e:f9:57:b5, 2015-01-01 00:09:27.135, -0.004, 0.033, 0.996, 0.671, 0.366, 0.366, , , , , , , 1.714, 0.231, -104.052,
 13:45:16.241,eb:33:2e:f9:57:b5, 2015-01-01 00:09:27.135, -0.003, 0.034, 0.995, 0.61, 0.305, 0.305, , , , , , , 1.714, 0.231, -104.052,
 13:45:16.241,eb:33:2e:f9:57:b5, 2015-01-01 00:09:27.135, -0.003, 0.034, 0.996, 0.549, 0.366, 0.305, , , , , , , 1.714, 0.231, -104.052,
 13:45:16.242,eb:33:2e:f9:57:b5, 2015-01-01 00:09:27.135, -0.003, 0.034, 0.996, 0.488, 0.305, 0.244, , , , , , , 1.714, 0.231, -104.052,
 13:45:16.242,eb:33:2e:f9:57:b5, 2015-01-01 00:09:27.135, -0.005, 0.035, 0.994, 0.366, 0.183, 0.244, , , , , , , 1.714, 0.231, -104.052,
 13:45:16.242,eb:33:2e:f9:57:b5, 2015-01-01 00:09:27.135, -0.004, 0.035, 0.994, 0.244, 0.183, 0.122, , , , , , , 1.714, 0.231, -104.052,
 13:45:16.242,eb:33:2e:f9:57:b5, 2015-01-01 00:09:27.135, -0.004, 0.035, 0.994, 0, 0.183, 0.122, , , , , , , 1.714, 0.231, -104.052,
 13:45:16.242,eb:33:2e:f9:57:b5, 2015-01-01 00:09:27.135, -0.003, 0.034, 0.995, 0, 0.061, 0.061, , , , , , , 1.714, 0.231, -104.052,
 13:45:16.242,eb:33:2e:f9:57:b5, 2015-01-01 00:09:27.135, -0.003, 0.033, 0.996, 0, 0.122, 0.122, , , , , , , 1.714, 0.231, -104.052,
 13:45:16.308,eb:33:2e:f9:57:b5, 2015-01-01 00:09:27.135, -0.002, 0.033, 0.996, -0.061, 0.122, 0.122, , , , , , , 1.714, 0.231, -104.052,
 13:45:16.309,eb:33:2e:f9:57:b5, 2015-01-01 00:09:27.135, -0.002, 0.033, 0.997, -0.122, 0.183, 0.061, , , , , , , 1.714, 0.231, -104.052,
 13:45:16.309,eb:33:2e:f9:57:b5, 2015-01-01 00:09:27.135, -0.004, 0.033, 0.998, -0.061, 0.183, 0.122, , , , , , , 1.714, 0.231, -104.052,
 13:45:16.309,eb:33:2e:f9:57:b5, 2015-01-01 00:09:27.135, -0.003, 0.032, 0.999, 0, 0.183, 0.122, , , , , , , 1.714, 0.231, -104.052,
 13:45:16.309,eb:33:2e:f9:57:b5, 2015-01-01 00:09:27.135, -0.004, 0.032, 0.999, 0, 0.305, 0.122, , , , , , , 1.714, 0.231, -104.052,
 13:45:16.309,eb:33:2e:f9:57:b5, 2015-01-01 00:09:27.135, -0.005, 0.031, 0.998, 0.061, 0.244, 0.183, , , , , , , 1.714, 0.231, -104.052,
 13:45:16.309,eb:33:2e:f9:57:b5, 2015-01-01 00:09:27.135, -0.005, 0.031, 0.996, 0.061, 0.183, 0.183, , , , , , , 1.714, 0.231, -104.052,
 13:45:16.309,eb:33:2e:f9:57:b5, 2015-01-01 00:09:27.135, -0.003, 0.032, 0.998, 0.122, 0.183, 0.122, , , , , , , 1.714, 0.231, -104.052,
 13:45:16.352,eb:33:2e:f9:57:b5, 2015-01-01 00:09:27.915, -0.003, 0.032, 0.999, 0.122, 0.122, 0.244, , , , , , , 1.714, 0.231, -104.052,
 13:45:16.352,eb:33:2e:f9:57:b5, 2015-01-01 00:09:27.915, -0.003, 0.032, 0.999, 0.183, 0.183, 0.244, , , , , , , 1.714, 0.231, -104.052,
 13:45:16.352,eb:33:2e:f9:57:b5, 2015-01-01 00:09:27.915, -0.003, 0.032, 0.999, 0.244, 0.244, 0.183, , , , , , , 1.714, 0.231, -104.052,
 13:45:16.352,eb:33:2e:f9:57:b5, 2015-01-01 00:09:27.915, -0.003, 0.032, 0.999, 0.305, 0.305, 0.244, , , , , , , 1.714, 0.231, -104.052,
 13:45:16.352,eb:33:2e:f9:57:b5, 2015-01-01 00:09:27.915, -0.004, 0.033, 0.998, 0.366, 0.305, 0.183, , , , , , , 1.714, 0.231, -104.052,
 13:45:16.352,eb:33:2e:f9:57:b5, 2015-01-01 00:09:27.915, -0.003, 0.033, 0.997, 0.305, 0.366, 0.244, , , , , , , 1.714, 0.231, -104.052,
 13:45:16.352,eb:33:2e:f9:57:b5, 2015-01-01 00:09:27.915, -0.003, 0.033, 0.998, 0.244, 0.366, 0.244, , , , , , , 1.714, 0.231, -104.046,
 13:45:16.353,eb:33:2e:f9:57:b5, 2015-01-01 00:09:27.915, -0.003, 0.033, 0.998, 0.183, 0.488, 0.244, , , , , , , 1.714, 0.231, -104.046,
 13:45:16.400,eb:33:2e:f9:57:b5, 2015-01-01 00:09:27.915, -0.005, 0.034, 0.996, 0.183, 0.488, 0.183, , , , , , , 1.714, 0.231, -104.046,
 13:45:16.400,eb:33:2e:f9:57:b5, 2015-01-01 00:09:27.915, -0.006, 0.035, 0.995, 0.183, 0.427, 0.183, , , , , , , 1.714, 0.231, -104.046,
 13:45:16.400,eb:33:2e:f9:57:b5, 2015-01-01 00:09:27.915, -0.006, 0.035, 0.995, 0.122, 0.305, 0.122, , , , , , , 1.714, 0.231, -104.046,
 13:45:16.400,eb:33:2e:f9:57:b5, 2015-01-01 00:09:27.915, -0.006, 0.033, 0.995, 0, 0.305, 0.061, , , , , , , 1.714, 0.231, -104.046,
 13:45:16.400,eb:33:2e:f9:57:b5, 2015-01-01 00:09:27.915, -0.006, 0.033, 0.995, 0, 0.183, 0.122, , , , , , , 1.714, 0.231, -104.046,
 13:45:16.400,eb:33:2e:f9:57:b5, 2015-01-01 00:09:27.915, -0.005, 0.033, 0.996, 0, 0.122, 0.061, , , , , , , 1.714, 0.231, -104.046,
 13:45:16.400,eb:33:2e:f9:57:b5, 2015-01-01 00:09:27.915, -0.005, 0.033, 0.997, 0, 0, 0.122, , , , , , , 1.714, 0.231, -104.046,
 13:45:16.400,eb:33:2e:f9:57:b5, 2015-01-01 00:09:27.915, -0.005, 0.032, 0.999, 0.061, 0, 0.183, , , , , , , 1.714, 0.231, -104.046,
 13:45:16.421,eb:33:2e:f9:57:b5, 2015-01-01 00:09:27.915, -0.003, 0.032, 0.999, 0.122, 0.061, 0.244, , , , , , , 1.714, 0.231, -104.046,
 13:45:16.421,eb:33:2e:f9:57:b5, 2015-01-01 00:09:27.915, -0.004, 0.032, 1, 0.244, 0.061, 0.305, , , , , , , 1.714, 0.231, -104.046,
 13:45:16.421,eb:33:2e:f9:57:b5, 2015-01-01 00:09:27.915, -0.003, 0.032, 1, 0.366, 0.061, 0.305, , , , , , , 1.714, 0.231, -104.046,
 13:45:16.421,eb:33:2e:f9:57:b5, 2015-01-01 00:09:27.915, -0.004, 0.032, 1, 0.488, 0.183, 0.305, , , , , , , 1.714, 0.231, -104.046,
 13:45:16.421,eb:33:2e:f9:57:b5, 2015-01-01 00:09:27.915, -0.004, 0.03, 1, 0.549, 0.305, 0.244, , , , , , , 1.714, 0.231, -104.046,
 13:45:16.421,eb:33:2e:f9:57:b5, 2015-01-01 00:09:27.915, -0.004, 0.031, 1, 0.732, 0.427, 0.305, , , , , , , 1.714, 0.231, -104.046,
 13:45:16.421,eb:33:2e:f9:57:b5, 2015-01-01 00:09:27.915, -0.008, 0.033, 0.999, 0.732, 0.366, 0.427, , , , , , , 1.714, 0.231, -104.046,
 13:45:16.422,eb:33:2e:f9:57:b5, 2015-01-01 00:09:27.915, -0.005, 0.034, 0.996, 0.671, 0.366, 0.305, , , , , , , 1.714, 0.231, -104.046,
 13:45:16.442,eb:33:2e:f9:57:b5, 2015-01-01 00:09:27.915, -0.004, 0.033, 0.997, 0.732, 0.305, 0.366, , , , , , , 1.714, 0.231, -104.046,
 13:45:16.442,eb:33:2e:f9:57:b5, 2015-01-01 00:09:27.915, -0.005, 0.034, 0.997, 0.671, 0.305, 0.366, , , , , , , 1.714, 0.231, -104.046,
 13:45:16.442,eb:33:2e:f9:57:b5, 2015-01-01 00:09:27.915, -0.006, 0.035, 0.996, 0.671, 0.244, 0.366, , , , , , , 1.714, 0.231, -104.046,
 13:45:16.442,eb:33:2e:f9:57:b5, 2015-01-01 00:09:27.915, -0.003, 0.034, 0.996, 0.61, 0.183, 0.366, , , , , , , 1.714, 0.231, -104.046,
 13:45:16.442,eb:33:2e:f9:57:b5, 2015-01-01 00:09:27.915, -0.003, 0.034, 0.998, 0.549, 0.244, 0.305, , , , , , , 1.714, 0.231, -104.046,
 13:45:16.442,eb:33:2e:f9:57:b5, 2015-01-01 00:09:27.915, -0.005, 0.033, 0.998, 0.549, 0.305, 0.366, , , , , , , 1.714, 0.231, -104.046,
 13:45:16.442,eb:33:2e:f9:57:b5, 2015-01-01 00:09:27.915, -0.004, 0.034, 0.998, 0.488, 0.366, 0.183, , , , , , , 1.714, 0.231, -104.046,
 13:45:16.442,eb:33:2e:f9:57:b5, 2015-01-01 00:09:27.915, -0.004, 0.036, 0.997, 0.488, 0.366, 0.183, , , , , , , 1.714, 0.231, -104.046,
 13:45:16.487,eb:33:2e:f9:57:b5, 2015-01-01 00:09:27.915, -0.002, 0.036, 0.998, 0.427, 0.488, 0.122, , , , , , , 1.714, 0.231, -104.046,
 13:45:16.487,eb:33:2e:f9:57:b5, 2015-01-01 00:09:27.915, -0.003, 0.034, 0.998, 0.488, 0.549, 0.122, , , , , , , 1.714, 0.231, -104.046,
 13:45:16.487,eb:33:2e:f9:57:b5, 2015-01-01 00:09:27.915, -0.004, 0.034, 0.999, 0.488, 0.671, 0.122, , , , , , , 1.719, 0.225, -104.046,
 13:45:16.487,eb:33:2e:f9:57:b5, 2015-01-01 00:09:27.915, -0.006, 0.034, 0.999, 0.488, 0.732, 0.183, , , , , , , 1.719, 0.225, -104.046,
 13:45:16.487,eb:33:2e:f9:57:b5, 2015-01-01 00:09:27.915, -0.005, 0.034, 0.996, 0.488, 0.732, 0.244, , , , , , , 1.719, 0.225, -104.046,
 13:45:16.487,eb:33:2e:f9:57:b5, 2015-01-01 00:09:27.915, -0.006, 0.034, 0.997, 0.488, 0.671, 0.366, , , , , , , 1.719, 0.225, -104.046,
 13:45:16.487,eb:33:2e:f9:57:b5, 2015-01-01 00:09:27.915, -0.004, 0.033, 0.999, 0.61, 0.732, 0.305, , , , , , , 1.719, 0.225, -104.046,
 13:45:16.487,eb:33:2e:f9:57:b5, 2015-01-01 00:09:27.915, -0.006, 0.033, 0.999, 0.671, 0.732, 0.305, , , , , , , 1.719, 0.225, -104.046,
 13:45:16.579,eb:33:2e:f9:57:b5, 2015-01-01 00:09:27.915, -0.007, 0.034, 0.998, 0.732, 0.793, 0.305, , , , , , , 1.719, 0.225, -104.046,
 13:45:16.579,eb:33:2e:f9:57:b5, 2015-01-01 00:09:27.915, -0.007, 0.035, 0.997, 0.732, 0.793, 0.305, , , , , , , 1.719, 0.225, -104.046,
 13:45:16.579,eb:33:2e:f9:57:b5, 2015-01-01 00:09:27.915, -0.007, 0.035, 0.996, 0.671, 0.671, 0.427, , , , , , , 1.719, 0.225, -104.046,
 13:45:16.579,eb:33:2e:f9:57:b5, 2015-01-01 00:09:27.915, -0.006, 0.034, 0.997, 0.671, 0.671, 0.244, , , , , , , 1.719, 0.225, -104.046,
 13:45:16.579,eb:33:2e:f9:57:b5, 2015-01-01 00:09:27.915, -0.005, 0.033, 0.996, 0.61, 0.549, 0.305, , , , , , , 1.719, 0.225, -104.046,
 13:45:16.579,eb:33:2e:f9:57:b5, 2015-01-01 00:09:27.915, -0.005, 0.035, 0.997, 0.61, 0.61, 0.305, , , , , , , 1.719, 0.225, -104.046,
 13:45:16.579,eb:33:2e:f9:57:b5, 2015-01-01 00:09:27.915, -0.004, 0.034, 0.998, 0.671, 0.61, 0.305, , , , , , , 1.719, 0.225, -104.046,
 13:45:16.579,eb:33:2e:f9:57:b5, 2015-01-01 00:09:27.915, -0.006, 0.034, 0.999, 0.671, 0.732, 0.305, , , , , , , 1.719, 0.225, -104.046,
 13:45:16.581,eb:33:2e:f9:57:b5, 2015-01-01 00:09:27.915, -0.008, 0.034, 0.997, 0.671, 0.61, 0.305, , , , , , , 1.719, 0.225, -104.046,
 13:45:16.581,eb:33:2e:f9:57:b5, 2015-01-01 00:09:27.915, -0.007, 0.037, 0.996, 0.61, 0.549, 0.305, , , , , , , 1.719, 0.225, -104.046,
 13:45:16.581,eb:33:2e:f9:57:b5, 2015-01-01 00:09:27.915, -0.007, 0.036, 0.996, 0.549, 0.427, 0.305, , , , , , , 1.719, 0.225, -104.046,
 13:45:16.581,eb:33:2e:f9:57:b5, 2015-01-01 00:09:27.915, -0.006, 0.037, 0.996, 0.488, 0.366, 0.244, , , , , , , 1.719, 0.225, -104.046,
 13:45:16.581,eb:33:2e:f9:57:b5, 2015-01-01 00:09:27.915, -0.006, 0.037, 0.996, 0.488, 0.366, 0.366, , , , , , , 1.719, 0.225, -104.052,
 13:45:16.581,eb:33:2e:f9:57:b5, 2015-01-01 00:09:27.915, -0.007, 0.036, 0.996, 0.427, 0.305, 0.305, , , , , , , 1.719, 0.225, -104.052,
 13:45:16.581,eb:33:2e:f9:57:b5, 2015-01-01 00:09:27.915, -0.007, 0.036, 0.996, 0.366, 0.244, 0.305, , , , , , , 1.73, 0.225, -104.052,
 13:45:16.581,eb:33:2e:f9:57:b5, 2015-01-01 00:09:27.915, -0.008, 0.037, 0.996, 0.366, 0.305, 0.305, , , , , , , 1.73, 0.225, -104.052,
 13:45:16.692,eb:33:2e:f9:57:b5, 2015-01-01 00:09:27.915, -0.007, 0.036, 0.995, 0.305, 0.122, 0.244, , , , , , , 1.73, 0.225, -104.052,
 13:45:16.692,eb:33:2e:f9:57:b5, 2015-01-01 00:09:27.915, -0.004, 0.036, 0.997, 0.305, 0.122, 0.244, , , , , , , 1.73, 0.225, -104.052,
 13:45:16.692,eb:33:2e:f9:57:b5, 2015-01-01 00:09:27.915, -0.003, 0.035, 1, 0.366, 0.244, 0.244, , , , , , , 1.736, 0.231, -104.052,
 13:45:16.692,eb:33:2e:f9:57:b5, 2015-01-01 00:09:27.915, -0.006, 0.034, 1.001, 0.427, 0.427, 0.244, , , , , , , 1.736, 0.231, -104.052,
 13:45:16.692,eb:33:2e:f9:57:b5, 2015-01-01 00:09:27.915, -0.009, 0.035, 0.998, 0.488, 0.366, 0.305, , , , , , , 1.736, 0.231, -104.052,
 13:45:16.692,eb:33:2e:f9:57:b5, 2015-01-01 00:09:27.915, -0.007, 0.036, 0.997, 0.488, 0.366, 0.305, , , , , , , 1.736, 0.231, -104.052,
 13:45:16.692,eb:33:2e:f9:57:b5, 2015-01-01 00:09:27.915, -0.006, 0.036, 0.997, 0.427, 0.305, 0.244, , , , , , , 1.736, 0.231, -104.052,
 13:45:16.692,eb:33:2e:f9:57:b5, 2015-01-01 00:09:27.915, -0.008, 0.036, 0.998, 0.488, 0.366, 0.305, , , , , , , 1.736, 0.231, -104.052,
 13:45:16.695,eb:33:2e:f9:57:b5, 2015-01-01 00:09:27.915, -0.009, 0.036, 0.997, 0.427, 0.305, 0.305, , , , , , , 1.736, 0.231, -104.057,
 13:45:16.695,eb:33:2e:f9:57:b5, 2015-01-01 00:09:27.915, -0.007, 0.036, 0.995, 0.366, 0.244, 0.305, , , , , , , 1.736, 0.231, -104.057,
 13:45:16.695,eb:33:2e:f9:57:b5, 2015-01-01 00:09:27.915, -0.006, 0.038, 0.994, 0.305, 0.122, 0.244, , , , , , , 1.741, 0.231, -104.057,
 13:45:16.695,eb:33:2e:f9:57:b5, 2015-01-01 00:09:27.915, -0.007, 0.038, 0.995, 0.244, 0.122, 0.183, , , , , , , 1.741, 0.231, -104.057,
 13:45:16.695,eb:33:2e:f9:57:b5, 2015-01-01 00:09:27.915, -0.007, 0.037, 0.994, 0.061, 0.061, 0.183, , , , , , , 1.741, 0.231, -104.057,
 13:45:16.695,eb:33:2e:f9:57:b5, 2015-01-01 00:09:27.915, -0.005, 0.037, 0.994, 0, 0, 0.183, , , , , , , 1.741, 0.231, -104.057,
 13:45:16.695,eb:33:2e:f9:57:b5, 2015-01-01 00:09:27.915, -0.006, 0.037, 0.996, 0, 0, 0.122, , , , , , , 1.741, 0.231, -104.057,
 13:45:16.695,eb:33:2e:f9:57:b5, 2015-01-01 00:09:27.915, -0.005, 0.036, 0.998, 0, 0.061, 0.122, , , , , , , 1.741, 0.231, -104.057,
 13:45:16.695,eb:33:2e:f9:57:b5, 2015-01-01 00:09:27.915, -0.006, 0.035, 0.998, 0.061, 0.061, 0.244, , , , , , , 1.741, 0.231, -104.062,
 13:45:16.695,eb:33:2e:f9:57:b5, 2015-01-01 00:09:27.915, -0.004, 0.036, 0.999, 0.061, 0.122, 0.183, , , , , , , 1.741, 0.231, -104.062,
 13:45:16.695,eb:33:2e:f9:57:b5, 2015-01-01 00:09:27.915, -0.006, 0.035, 1, 0.122, 0.244, 0.244, , , , , , , 1.741, 0.231, -104.062,
 13:45:16.696,eb:33:2e:f9:57:b5, 2015-01-01 00:09:27.915, -0.007, 0.035, 1, 0.244, 0.305, 0.183, , , , , , , 1.741, 0.231, -104.062,
 13:45:16.696,eb:33:2e:f9:57:b5, 2015-01-01 00:09:27.915, -0.006, 0.036, 0.999, 0.305, 0.366, 0.183, , , , , , , 1.741, 0.231, -104.062,
 13:45:16.696,eb:33:2e:f9:57:b5, 2015-01-01 00:09:27.915, -0.007, 0.035, 0.999, 0.366, 0.427, 0.183, , , , , , , 1.741, 0.231, -104.062,
 13:45:16.696,eb:33:2e:f9:57:b5, 2015-01-01 00:09:27.915, -0.008, 0.036, 0.998, 0.305, 0.366, 0.244, , , , , , , 1.747, 0.231, -104.062,
 13:45:16.696,eb:33:2e:f9:57:b5, 2015-01-01 00:09:27.915, -0.007, 0.037, 0.996, 0.366, 0.366, 0.244, , , , , , , 1.747, 0.231, -104.062,
 13:45:16.782,eb:33:2e:f9:57:b5, 2015-01-01 00:09:27.915, -0.007, 0.036, 0.996, 0.366, 0.305, 0.305, , , , , , , 1.747, 0.231, -104.062,
 13:45:16.782,eb:33:2e:f9:57:b5, 2015-01-01 00:09:27.915, -0.007, 0.035, 0.998, 0.427, 0.366, 0.305, , , , , , , 1.747, 0.231, -104.062,
 13:45:16.782,eb:33:2e:f9:57:b5, 2015-01-01 00:09:27.915, -0.007, 0.035, 0.997, 0.488, 0.305, 0.366, , , , , , , 1.747, 0.231, -104.062,
 13:45:16.782,eb:33:2e:f9:57:b5, 2015-01-01 00:09:27.915, -0.005, 0.035, 0.997, 0.427, 0.305, 0.305, , , , , , , 1.747, 0.231, -104.062,
 13:45:16.782,eb:33:2e:f9:57:b5, 2015-01-01 00:09:27.915, -0.007, 0.036, 0.998, 0.488, 0.366, 0.305, , , , , , , 1.747, 0.231, -104.068,
 13:45:16.782,eb:33:2e:f9:57:b5, 2015-01-01 00:09:27.915, -0.011, 0.037, 0.997, 0.427, 0.427, 0.366, , , , , , , 1.747, 0.231, -104.068,
 13:45:16.782,eb:33:2e:f9:57:b5, 2015-01-01 00:09:27.915, -0.01, 0.036, 0.994, 0.427, 0.244, 0.366, , , , , , , 1.747, 0.236, -104.068,
 13:45:16.782,eb:33:2e:f9:57:b5, 2015-01-01 00:09:27.915, -0.007, 0.038, 0.994, 0.305, 0.122, 0.305, , , , , , , 1.747, 0.236, -104.068,
 13:45:16.784,eb:33:2e:f9:57:b5, 2015-01-01 00:09:27.915, -0.008, 0.038, 0.995, 0.305, 0.122, 0.366, , , , , , , 1.752, 0.236, -104.068,
 13:45:16.784,eb:33:2e:f9:57:b5, 2015-01-01 00:09:27.915, -0.008, 0.038, 0.995, 0.183, 0.122, 0.305, , , , , , , 1.752, 0.236, -104.068,
 13:45:16.784,eb:33:2e:f9:57:b5, 2015-01-01 00:09:27.915, -0.008, 0.038, 0.995, 0.061, 0.061, 0.244, , , , , , , 1.752, 0.236, -104.068,
 13:45:16.784,eb:33:2e:f9:57:b5, 2015-01-01 00:09:27.915, -0.007, 0.039, 0.994, 0, -0.061, 0.244, , , , , , , 1.752, 0.236, -104.068,
 13:45:16.784,eb:33:2e:f9:57:b5, 2015-01-01 00:09:27.915, -0.007, 0.039, 0.994, -0.061, -0.122, 0.183, , , , , , , 1.752, 0.236, -104.068,
 13:45:16.784,eb:33:2e:f9:57:b5, 2015-01-01 00:09:27.915, -0.007, 0.038, 0.995, -0.122, -0.183, 0.183, , , , , , , 1.752, 0.236, -104.068,
 13:45:16.784,eb:33:2e:f9:57:b5, 2015-01-01 00:09:27.915, -0.004, 0.036, 0.997, -0.122, -0.183, 0.183, , , , , , , 1.752, 0.236, -104.068,
 13:45:16.784,eb:33:2e:f9:57:b5, 2015-01-01 00:09:27.915, -0.004, 0.036, 1, -0.061, -0.061, 0.183, , , , , , , 1.752, 0.236, -104.068,
 13:45:16.870,eb:33:2e:f9:57:b5, 2015-01-01 00:09:28.385, -0.005, 0.036, 1.001, 0, 0.122, 0.183, , , , , , , 1.752, 0.236, -104.073,
 13:45:16.870,eb:33:2e:f9:57:b5, 2015-01-01 00:09:28.385, -0.007, 0.035, 1, 0, 0.244, 0.183, , , , , , , 1.752, 0.236, -104.073,
 13:45:16.870,eb:33:2e:f9:57:b5, 2015-01-01 00:09:28.385, -0.007, 0.036, 0.999, 0.122, 0.244, 0.305, , , , , , , 1.758, 0.236, -104.073,
 13:45:16.870,eb:33:2e:f9:57:b5, 2015-01-01 00:09:28.385, -0.008, 0.035, 0.998, 0.244, 0.183, 0.366, , , , , , , 1.758, 0.236, -104.073,
 13:45:16.870,eb:33:2e:f9:57:b5, 2015-01-01 00:09:28.385, -0.009, 0.036, 0.998, 0.305, 0.183, 0.366, , , , , , , 1.758, 0.236, -104.073,
 13:45:16.870,eb:33:2e:f9:57:b5, 2015-01-01 00:09:28.385, -0.008, 0.036, 0.997, 0.305, 0.183, 0.366, , , , , , , 1.758, 0.236, -104.073,
 13:45:16.870,eb:33:2e:f9:57:b5, 2015-01-01 00:09:28.385, -0.008, 0.036, 0.998, 0.366, 0.122, 0.366, , , , , , , 1.758, 0.236, -104.073,
 13:45:16.871,eb:33:2e:f9:57:b5, 2015-01-01 00:09:28.385, -0.008, 0.037, 0.997, 0.366, 0.183, 0.366, , , , , , , 1.758, 0.236, -104.073,
 13:45:16.893,eb:33:2e:f9:57:b5, 2015-01-01 00:09:28.385, -0.007, 0.037, 0.997, 0.366, 0.183, 0.366, , , , , , , 1.758, 0.236, -104.079,
 13:45:16.893,eb:33:2e:f9:57:b5, 2015-01-01 00:09:28.385, -0.005, 0.038, 0.998, 0.366, 0.183, 0.305, , , , , , , 1.758, 0.236, -104.079,
 13:45:16.893,eb:33:2e:f9:57:b5, 2015-01-01 00:09:28.385, -0.007, 0.037, 0.998, 0.366, 0.244, 0.305, , , , , , , 1.763, 0.242, -104.079,
 13:45:16.893,eb:33:2e:f9:57:b5, 2015-01-01 00:09:28.385, -0.008, 0.037, 0.997, 0.366, 0.183, 0.366, , , , , , , 1.763, 0.242, -104.079,
 13:45:16.893,eb:33:2e:f9:57:b5, 2015-01-01 00:09:28.385, -0.01, 0.039, 0.996, 0.244, 0.183, 0.305, , , , , , , 1.763, 0.242, -104.079,
 13:45:16.893,eb:33:2e:f9:57:b5, 2015-01-01 00:09:28.385, -0.01, 0.039, 0.995, 0.122, 0.122, 0.305, , , , , , , 1.763, 0.242, -104.079,
 13:45:16.893,eb:33:2e:f9:57:b5, 2015-01-01 00:09:28.385, -0.008, 0.038, 0.994, 0, 0.061, 0.244, , , , , , , 1.763, 0.242, -104.079,
 13:45:16.893,eb:33:2e:f9:57:b5, 2015-01-01 00:09:28.385, -0.006, 0.038, 0.995, 0, 0, 0.244, , , , , , , 1.763, 0.242, -104.079,
 13:45:16.896,eb:33:2e:f9:57:b5, 2015-01-01 00:09:28.385, -0.007, 0.038, 0.995, -0.061, -0.122, 0.244, , , , , , , 1.763, 0.242, -104.079,
 13:45:16.896,eb:33:2e:f9:57:b5, 2015-01-01 00:09:28.385, -0.008, 0.038, 0.996, -0.122, -0.122, 0.244, , , , , , , 1.763, 0.242, -104.079,
 13:45:16.896,eb:33:2e:f9:57:b5, 2015-01-01 00:09:28.385, -0.008, 0.038, 0.996, -0.183, -0.122, 0.122, , , , , , , 1.769, 0.242, -104.079,
 13:45:16.896,eb:33:2e:f9:57:b5, 2015-01-01 00:09:28.385, -0.006, 0.037, 0.997, -0.183, -0.061, 0.061, , , , , , , 1.769, 0.242, -104.079,
 13:45:16.896,eb:33:2e:f9:57:b5, 2015-01-01 00:09:28.385, -0.005, 0.037, 0.999, -0.122, 0, 0.122, , , , , , , 1.769, 0.242, -104.084,
 13:45:16.896,eb:33:2e:f9:57:b5, 2015-01-01 00:09:28.385, -0.006, 0.036, 1, -0.061, 0.122, 0.183, , , , , , , 1.769, 0.242, -104.084,
 13:45:16.896,eb:33:2e:f9:57:b5, 2015-01-01 00:09:28.385, -0.007, 0.036, 1.001, 0, 0.183, 0.183, , , , , , , 1.769, 0.242, -104.084,
 13:45:16.896,eb:33:2e:f9:57:b5, 2015-01-01 00:09:28.385, -0.007, 0.035, 0.999, 0.122, 0.183, 0.183, , , , , , , 1.769, 0.242, -104.084,
 13:45:16.961,eb:33:2e:f9:57:b5, 2015-01-01 00:09:28.385, -0.008, 0.037, 0.998, 0.061, 0.244, 0.244, , , , , , , 1.769, 0.242, -104.084,
 13:45:16.961,eb:33:2e:f9:57:b5, 2015-01-01 00:09:28.385, -0.007, 0.036, 0.998, 0.061, 0.183, 0.244, , , , , , , 1.769, 0.242, -104.084,
 13:45:16.961,eb:33:2e:f9:57:b5, 2015-01-01 00:09:28.385, -0.01, 0.037, 0.998, 0.122, 0.122, 0.244, , , , , , , 1.769, 0.242, -104.084,
 13:45:16.961,eb:33:2e:f9:57:b5, 2015-01-01 00:09:28.385, -0.01, 0.036, 0.995, 0.183, 0, 0.305, , , , , , , 1.769, 0.242, -104.084,
 13:45:16.961,eb:33:2e:f9:57:b5, 2015-01-01 00:09:28.385, -0.007, 0.038, 0.996, 0.183, 0, 0.244, , , , , , , 1.769, 0.242, -104.084,
 13:45:16.961,eb:33:2e:f9:57:b5, 2015-01-01 00:09:28.385, -0.008, 0.038, 0.997, 0.122, -0.061, 0.244, , , , , , , 1.769, 0.242, -104.084,
 13:45:16.961,eb:33:2e:f9:57:b5, 2015-01-01 00:09:28.385, -0.009, 0.038, 0.996, 0, 0, 0.244, , , , , , , 1.774, 0.247, -104.084,
 13:45:16.961,eb:33:2e:f9:57:b5, 2015-01-01 00:09:28.385, -0.008, 0.038, 0.995, 0, -0.122, 0.183, , , , , , , 1.774, 0.247, -104.084,
 13:45:16.963,eb:33:2e:f9:57:b5, 2015-01-01 00:09:28.385, -0.008, 0.039, 0.995, -0.061, -0.122, 0.122, , , , , , , 1.774, 0.247, -104.09,
 13:45:16.963,eb:33:2e:f9:57:b5, 2015-01-01 00:09:28.385, -0.009, 0.038, 0.994, -0.122, -0.244, 0.244, , , , , , , 1.774, 0.247, -104.09,
 13:45:16.963,eb:33:2e:f9:57:b5, 2015-01-01 00:09:28.385, -0.007, 0.039, 0.994, -0.244, -0.305, 0.122, , , , , , , 1.774, 0.247, -104.09,
 13:45:16.963,eb:33:2e:f9:57:b5, 2015-01-01 00:09:28.385, -0.004, 0.038, 0.996, -0.244, -0.305, 0.122, , , , , , , 1.774, 0.247, -104.09,
 13:45:16.963,eb:33:2e:f9:57:b5, 2015-01-01 00:09:28.385, -0.006, 0.038, 0.999, -0.244, -0.122, 0.122, , , , , , , 1.774, 0.247, -104.09,
 13:45:16.963,eb:33:2e:f9:57:b5, 2015-01-01 00:09:28.385, -0.008, 0.038, 0.998, -0.305, 0, 0, , , , , , , 1.774, 0.247, -104.09,
 13:45:16.963,eb:33:2e:f9:57:b5, 2015-01-01 00:09:28.385, -0.008, 0.038, 0.996, -0.305, -0.061, 0.061, , , , , , , 1.78, 0.247, -104.09,
 13:45:16.963,eb:33:2e:f9:57:b5, 2015-01-01 00:09:28.385, -0.006, 0.037, 0.996, -0.305, -0.122, 0.061, , , , , , , 1.78, 0.247, -104.09,
 13:45:17.009,eb:33:2e:f9:57:b5, 2015-01-01 00:09:28.385, -0.007, 0.037, 0.998, -0.244, -0.122, 0, , , , , , , 1.78, 0.247, -104.09,
 13:45:17.009,eb:33:2e:f9:57:b5, 2015-01-01 00:09:28.385, -0.007, 0.035, 0.999, -0.183, 0, 0.061, , , , , , , 1.78, 0.247, -104.09,
 13:45:17.009,eb:33:2e:f9:57:b5, 2015-01-01 00:09:28.385, -0.008, 0.036, 0.999, -0.183, -0.061, 0.122, , , , , , , 1.78, 0.247, -104.09,
 13:45:17.009,eb:33:2e:f9:57:b5, 2015-01-01 00:09:28.385, -0.007, 0.035, 1, -0.061, -0.061, 0.122, , , , , , , 1.78, 0.247, -104.09,
 13:45:17.009,eb:33:2e:f9:57:b5, 2015-01-01 00:09:28.385, -0.007, 0.036, 0.999, 0, 0, 0.183, , , , , , , 1.78, 0.247, -104.095,
 13:45:17.009,eb:33:2e:f9:57:b5, 2015-01-01 00:09:28.385, -0.008, 0.036, 0.999, 0, 0, 0.183, , , , , , , 1.78, 0.247, -104.095,
 13:45:17.009,eb:33:2e:f9:57:b5, 2015-01-01 00:09:28.385, -0.009, 0.035, 0.997, 0, 0, 0.244, , , , , , , 1.785, 0.253, -104.095,
 13:45:17.009,eb:33:2e:f9:57:b5, 2015-01-01 00:09:28.385, -0.007, 0.037, 0.996, 0.061, -0.122, 0.244, , , , , , , 1.785, 0.253, -104.095,
 13:45:17.231,eb:33:2e:f9:57:b5, 2015-01-01 00:09:28.385, -0.007, 0.037, 0.997, 0, -0.061, 0.244, , , , , , , 1.785, 0.253, -104.095,
 13:45:17.231,eb:33:2e:f9:57:b5, 2015-01-01 00:09:28.385, -0.008, 0.037, 0.997, 0, 0, 0.244, , , , , , , 1.785, 0.253, -104.095,
 13:45:17.231,eb:33:2e:f9:57:b5, 2015-01-01 00:09:28.385, -0.007, 0.038, 0.995, -0.061, -0.061, 0.183, , , , , , , 1.785, 0.253, -104.095,
 13:45:17.231,eb:33:2e:f9:57:b5, 2015-01-01 00:09:28.385, -0.007, 0.039, 0.994, -0.122, -0.061, 0.122, , , , , , , 1.785, 0.253, -104.095,
 13:45:17.231,eb:33:2e:f9:57:b5, 2015-01-01 00:09:28.385, -0.007, 0.039, 0.995, -0.244, -0.183, 0.122, , , , , , , 1.785, 0.253, -104.095,
 13:45:17.231,eb:33:2e:f9:57:b5, 2015-01-01 00:09:28.385, -0.007, 0.037, 0.996, -0.305, -0.061, 0, , , , , , , 1.785, 0.253, -104.095,
 13:45:17.231,eb:33:2e:f9:57:b5, 2015-01-01 00:09:28.385, -0.008, 0.037, 0.996, -0.244, -0.183, 0.061, , , , , , , 1.785, 0.253, -104.095,
 13:45:17.231,eb:33:2e:f9:57:b5, 2015-01-01 00:09:28.385, -0.006, 0.035, 0.999, -0.183, -0.122, 0.061, , , , , , , 1.785, 0.253, -104.095,
 13:45:17.233,eb:33:2e:f9:57:b5, 2015-01-01 00:09:28.675, -0.008, 0.036, 1, -0.122, -0.061, 0.061, , , , , , , 1.785, 0.253, -104.101,
 13:45:17.233,eb:33:2e:f9:57:b5, 2015-01-01 00:09:28.675, -0.008, 0.036, 0.998, -0.122, 0, 0.122, , , , , , , 1.785, 0.253, -104.101,
 13:45:17.233,eb:33:2e:f9:57:b5, 2015-01-01 00:09:28.675, -0.006, 0.036, 0.998, -0.122, 0, 0.122, , , , , , , 1.791, 0.253, -104.101,
 13:45:17.233,eb:33:2e:f9:57:b5, 2015-01-01 00:09:28.675, -0.007, 0.036, 0.999, -0.061, 0, 0.122, , , , , , , 1.791, 0.253, -104.101,
 13:45:17.233,eb:33:2e:f9:57:b5, 2015-01-01 00:09:28.675, -0.007, 0.035, 0.999, 0, 0, 0.061, , , , , , , 1.791, 0.253, -104.101,
 13:45:17.233,eb:33:2e:f9:57:b5, 2015-01-01 00:09:28.675, -0.007, 0.036, 1, 0.122, 0.122, 0.122, , , , , , , 1.791, 0.253, -104.101,
 13:45:17.233,eb:33:2e:f9:57:b5, 2015-01-01 00:09:28.675, -0.007, 0.036, 1, 0.183, 0.122, 0.183, , , , , , , 1.791, 0.253, -104.101,
 13:45:17.233,eb:33:2e:f9:57:b5, 2015-01-01 00:09:28.675, -0.008, 0.035, 0.999, 0.244, 0.061, 0.244, , , , , , , 1.791, 0.253, -104.101,
 13:45:17.233,eb:33:2e:f9:57:b5, 2015-01-01 00:09:28.675, -0.007, 0.036, 0.997, 0.244, 0.122, 0.244, , , , , , , 1.791, 0.253, -104.101,
 13:45:17.233,eb:33:2e:f9:57:b5, 2015-01-01 00:09:28.675, -0.008, 0.036, 0.998, 0.244, 0.122, 0.305, , , , , , , 1.791, 0.253, -104.101,
 13:45:17.234,eb:33:2e:f9:57:b5, 2015-01-01 00:09:28.675, -0.009, 0.037, 0.997, 0.305, 0.122, 0.244, , , , , , , 1.791, 0.258, -104.101,
 13:45:17.234,eb:33:2e:f9:57:b5, 2015-01-01 00:09:28.675, -0.008, 0.038, 0.996, 0.244, 0.061, 0.244, , , , , , , 1.791, 0.258, -104.101,
 13:45:17.234,eb:33:2e:f9:57:b5, 2015-01-01 00:09:28.675, -0.009, 0.038, 0.996, 0.183, 0.061, 0.244, , , , , , , 1.796, 0.258, -104.106,
 13:45:17.234,eb:33:2e:f9:57:b5, 2015-01-01 00:09:28.675, -0.008, 0.037, 0.995, 0.183, 0.061, 0.244, , , , , , , 1.796, 0.258, -104.106,
 13:45:17.234,eb:33:2e:f9:57:b5, 2015-01-01 00:09:28.675, -0.009, 0.038, 0.995, 0.061, 0, 0.244, , , , , , , 1.796, 0.258, -104.106,
 13:45:17.234,eb:33:2e:f9:57:b5, 2015-01-01 00:09:28.675, -0.007, 0.038, 0.995, 0, 0, 0.183, , , , , , , 1.796, 0.258, -104.106,
 13:45:17.236,eb:33:2e:f9:57:b5, 2015-01-01 00:09:28.675, -0.007, 0.038, 0.994, 0, -0.061, 0.122, , , , , , , 1.796, 0.258, -104.106,
 13:45:17.236,eb:33:2e:f9:57:b5, 2015-01-01 00:09:28.675, -0.005, 0.039, 0.996, 0, 0, 0.122, , , , , , , 1.796, 0.258, -104.106,
 13:45:17.236,eb:33:2e:f9:57:b5, 2015-01-01 00:09:28.675, -0.007, 0.038, 0.998, -0.061, 0, 0.061, , , , , , , 1.796, 0.258, -104.106,
 13:45:17.236,eb:33:2e:f9:57:b5, 2015-01-01 00:09:28.675, -0.008, 0.038, 0.997, -0.061, 0.061, 0.061, , , , , , , 1.796, 0.258, -104.106,
 13:45:17.236,eb:33:2e:f9:57:b5, 2015-01-01 00:09:28.675, -0.007, 0.037, 0.997, -0.061, 0, 0.061, , , , , , , 1.796, 0.258, -104.106,
 13:45:17.236,eb:33:2e:f9:57:b5, 2015-01-01 00:09:28.675, -0.007, 0.037, 0.998, -0.061, 0.061, 0.061, , , , , , , 1.796, 0.258, -104.106,
 13:45:17.237,eb:33:2e:f9:57:b5, 2015-01-01 00:09:28.675, -0.006, 0.037, 0.999, 0, 0.122, 0.122, , , , , , , 1.802, 0.258, -104.106,
 13:45:17.237,eb:33:2e:f9:57:b5, 2015-01-01 00:09:28.675, -0.007, 0.036, 1, 0, 0.122, 0.122, , , , , , , 1.802, 0.258, -104.106,
 13:45:17.253,eb:33:2e:f9:57:b5, 2015-01-01 00:09:28.675, -0.008, 0.036, 1, 0.061, 0.122, 0.183, , , , , , , 1.802, 0.258, -104.112,
 13:45:17.253,eb:33:2e:f9:57:b5, 2015-01-01 00:09:28.675, -0.008, 0.036, 1, 0.122, 0.244, 0.183, , , , , , , 1.802, 0.258, -104.112,
 13:45:17.253,eb:33:2e:f9:57:b5, 2015-01-01 00:09:28.675, -0.007, 0.036, 1, 0.183, 0.244, 0.183, , , , , , , 1.802, 0.258, -104.112,
 13:45:17.253,eb:33:2e:f9:57:b5, 2015-01-01 00:09:28.675, -0.008, 0.036, 0.999, 0.244, 0.244, 0.244, , , , , , , 1.802, 0.258, -104.112,
 13:45:17.253,eb:33:2e:f9:57:b5, 2015-01-01 00:09:28.675, -0.009, 0.036, 0.999, 0.366, 0.244, 0.366, , , , , , , 1.802, 0.258, -104.112,
 13:45:17.253,eb:33:2e:f9:57:b5, 2015-01-01 00:09:28.675, -0.008, 0.036, 0.998, 0.427, 0.183, 0.366, , , , , , , 1.802, 0.258, -104.112,
 13:45:17.253,eb:33:2e:f9:57:b5, 2015-01-01 00:09:28.675, -0.007, 0.037, 0.998, 0.427, 0.244, 0.427, , , , , , , 1.802, 0.264, -104.112,
 13:45:17.253,eb:33:2e:f9:57:b5, 2015-01-01 00:09:28.675, -0.006, 0.037, 0.998, 0.488, 0.305, 0.366, , , , , , , 1.802, 0.264, -104.112,
 13:45:17.255,eb:33:2e:f9:57:b5, 2015-01-01 00:09:28.675, -0.006, 0.036, 0.999, 0.488, 0.366, 0.366, , , , , , , 1.802, 0.264, -104.112,
 13:45:17.255,eb:33:2e:f9:57:b5, 2015-01-01 00:09:28.675, -0.008, 0.036, 0.999, 0.549, 0.549, 0.366, , , , , , , 1.802, 0.264, -104.112,
 13:45:17.255,eb:33:2e:f9:57:b5, 2015-01-01 00:09:28.675, -0.008, 0.037, 0.998, 0.61, 0.61, 0.366, , , , , , , 1.807, 0.264, -104.112,
 13:45:17.255,eb:33:2e:f9:57:b5, 2015-01-01 00:09:28.675, -0.008, 0.038, 0.996, 0.549, 0.61, 0.305, , , , , , , 1.807, 0.264, -104.112,
 13:45:17.255,eb:33:2e:f9:57:b5, 2015-01-01 00:09:28.675, -0.008, 0.038, 0.997, 0.549, 0.61, 0.305, , , , , , , 1.807, 0.264, -104.117,
 13:45:17.255,eb:33:2e:f9:57:b5, 2015-01-01 00:09:28.675, -0.008, 0.038, 0.998, 0.549, 0.61, 0.305, , , , , , , 1.807, 0.264, -104.117,
 13:45:17.255,eb:33:2e:f9:57:b5, 2015-01-01 00:09:28.675, -0.009, 0.037, 0.996, 0.549, 0.671, 0.305, , , , , , , 1.807, 0.264, -104.117,
 13:45:17.255,eb:33:2e:f9:57:b5, 2015-01-01 00:09:28.675, -0.01, 0.038, 0.996, 0.549, 0.549, 0.244, , , , , , , 1.807, 0.264, -104.117,
 13:45:17.320,eb:33:2e:f9:57:b5, 2015-01-01 00:09:28.675, -0.008, 0.038, 0.996, 0.549, 0.549, 0.244, , , , , , , 1.807, 0.264, -104.117,
 13:45:17.320,eb:33:2e:f9:57:b5, 2015-01-01 00:09:28.675, -0.008, 0.039, 0.997, 0.488, 0.549, 0.305, , , , , , , 1.807, 0.264, -104.117,
 13:45:17.320,eb:33:2e:f9:57:b5, 2015-01-01 00:09:28.675, -0.009, 0.038, 0.996, 0.488, 0.549, 0.305, , , , , , , 1.813, 0.264, -104.117,
 13:45:17.320,eb:33:2e:f9:57:b5, 2015-01-01 00:09:28.675, -0.007, 0.038, 0.999, 0.488, 0.61, 0.244, , , , , , , 1.813, 0.264, -104.117,
 13:45:17.320,eb:33:2e:f9:57:b5, 2015-01-01 00:09:28.675, -0.007, 0.036, 1, 0.61, 0.671, 0.305, , , , , , , 1.813, 0.264, -104.117,
 13:45:17.320,eb:33:2e:f9:57:b5, 2015-01-01 00:09:28.675, -0.008, 0.037, 1, 0.671, 0.732, 0.305, , , , , , , 1.813, 0.264, -104.117,
 13:45:17.320,eb:33:2e:f9:57:b5, 2015-01-01 00:09:28.675, -0.009, 0.037, 0.999, 0.793, 0.854, 0.305, , , , , , , 1.813, 0.264, -104.117,
 13:45:17.320,eb:33:2e:f9:57:b5, 2015-01-01 00:09:28.675, -0.009, 0.037, 0.999, 0.793, 0.854, 0.366, , , , , , , 1.813, 0.264, -104.117,
 13:45:17.479,eb:33:2e:f9:57:b5, 2015-01-01 00:09:28.675, -0.008, 0.037, 0.997, 0.793, 0.793, 0.366, , , , , , , 1.813, 0.264, -104.123,
 13:45:17.479,eb:33:2e:f9:57:b5, 2015-01-01 00:09:28.675, -0.01, 0.04, 0.995, 0.732, 0.793, 0.366, , , , , , , 1.813, 0.264, -104.123,
 13:45:17.479,eb:33:2e:f9:57:b5, 2015-01-01 00:09:28.675, -0.01, 0.04, 0.994, 0.732, 0.732, 0.366, , , , , , , 1.813, 0.269, -104.123,
 13:45:17.479,eb:33:2e:f9:57:b5, 2015-01-01 00:09:28.675, -0.01, 0.039, 0.995, 0.61, 0.671, 0.366, , , , , , , 1.813, 0.269, -104.123,
 13:45:17.479,eb:33:2e:f9:57:b5, 2015-01-01 00:09:28.675, -0.011, 0.04, 0.993, 0.61, 0.549, 0.366, , , , , , , 1.813, 0.269, -104.123,
 13:45:17.479,eb:33:2e:f9:57:b5, 2015-01-01 00:09:28.675, -0.011, 0.04, 0.994, 0.488, 0.488, 0.305, , , , , , , 1.813, 0.269, -104.123,
 13:45:17.479,eb:33:2e:f9:57:b5, 2015-01-01 00:09:28.675, -0.011, 0.04, 0.994, 0.366, 0.366, 0.244, , , , , , , 1.818, 0.269, -104.123,
 13:45:17.479,eb:33:2e:f9:57:b5, 2015-01-01 00:09:28.675, -0.01, 0.04, 0.994, 0.183, 0.244, 0.183, , , , , , , 1.818, 0.269, -104.123,
 13:45:17.569,eb:33:2e:f9:57:b5, 2015-01-01 00:09:28.675, -0.01, 0.04, 0.995, 0.183, 0.183, 0.244, , , , , , , 1.818, 0.269, -104.123,
 13:45:17.569,eb:33:2e:f9:57:b5, 2015-01-01 00:09:28.675, -0.01, 0.04, 0.996, 0.183, 0.122, 0.183, , , , , , , 1.818, 0.269, -104.123,
 13:45:17.569,eb:33:2e:f9:57:b5, 2015-01-01 00:09:28.675, -0.008, 0.039, 0.997, 0.122, 0.122, 0.183, , , , , , , 1.818, 0.269, -104.123,
 13:45:17.569,eb:33:2e:f9:57:b5, 2015-01-01 00:09:28.675, -0.009, 0.039, 0.998, 0.183, 0.183, 0.183, , , , , , , 1.818, 0.269, -104.123,
 13:45:17.569,eb:33:2e:f9:57:b5, 2015-01-01 00:09:28.675, -0.009, 0.038, 0.998, 0.183, 0.244, 0.122, , , , , , , 1.818, 0.269, -104.128,
 13:45:17.569,eb:33:2e:f9:57:b5, 2015-01-01 00:09:28.675, -0.011, 0.038, 1, 0.244, 0.244, 0.183, , , , , , , 1.818, 0.269, -104.128,
 13:45:17.569,eb:33:2e:f9:57:b5, 2015-01-01 00:09:28.675, -0.009, 0.038, 0.998, 0.305, 0.244, 0.244, , , , , , , 1.824, 0.275, -104.128,
 13:45:17.569,eb:33:2e:f9:57:b5, 2015-01-01 00:09:28.675, -0.009, 0.038, 0.998, 0.366, 0.244, 0.244, , , , , , , 1.824, 0.275, -104.128,
 13:45:17.574,eb:33:2e:f9:57:b5, 2015-01-01 00:09:28.675, -0.01, 0.037, 1, 0.366, 0.244, 0.366, , , , , , , 1.824, 0.275, -104.128,
 13:45:17.574,eb:33:2e:f9:57:b5, 2015-01-01 00:09:28.675, -0.01, 0.039, 0.997, 0.366, 0.305, 0.305, , , , , , , 1.824, 0.275, -104.128,
 13:45:17.574,eb:33:2e:f9:57:b5, 2015-01-01 00:09:28.675, -0.01, 0.04, 0.996, 0.305, 0.244, 0.305, , , , , , , 1.824, 0.275, -104.128,
 13:45:17.574,eb:33:2e:f9:57:b5, 2015-01-01 00:09:28.675, -0.009, 0.039, 0.996, 0.305, 0.244, 0.305, , , , , , , 1.824, 0.275, -104.128,
 13:45:17.574,eb:33:2e:f9:57:b5, 2015-01-01 00:09:28.675, -0.01, 0.04, 0.997, 0.244, 0.305, 0.305, , , , , , , 1.824, 0.275, -104.128,
 13:45:17.574,eb:33:2e:f9:57:b5, 2015-01-01 00:09:28.675, -0.01, 0.04, 0.996, 0.244, 0.244, 0.244, , , , , , , 1.824, 0.275, -104.128,
 13:45:17.574,eb:33:2e:f9:57:b5, 2015-01-01 00:09:28.675, -0.009, 0.04, 0.995, 0.183, 0.122, 0.244, , , , , , , 1.829, 0.275, -104.128,
 13:45:17.574,eb:33:2e:f9:57:b5, 2015-01-01 00:09:28.675, -0.01, 0.041, 0.996, 0.122, 0.061, 0.183, , , , , , , 1.829, 0.275, -104.128,
 13:45:17.636,eb:33:2e:f9:57:b5, 2015-01-01 00:09:28.675, -0.01, 0.04, 0.995, 0.061, 0.061, 0.183, , , , , , , 1.829, 0.275, -104.134,
 13:45:17.636,eb:33:2e:f9:57:b5, 2015-01-01 00:09:28.675, -0.008, 0.041, 0.996, 0, 0.061, 0.122, , , , , , , 1.829, 0.275, -104.134,
 13:45:17.636,eb:33:2e:f9:57:b5, 2015-01-01 00:09:28.675, -0.01, 0.041, 0.998, 0, 0.061, 0.122, , , , , , , 1.829, 0.28, -104.128,
 13:45:17.636,eb:33:2e:f9:57:b5, 2015-01-01 00:09:28.675, -0.01, 0.04, 0.998, 0, 0.122, 0.122, , , , , , , 1.829, 0.28, -104.128,
 13:45:17.636,eb:33:2e:f9:57:b5, 2015-01-01 00:09:28.675, -0.009, 0.039, 0.997, 0.061, 0.122, 0.183, , , , , , , 1.829, 0.28, -104.134,
 13:45:17.636,eb:33:2e:f9:57:b5, 2015-01-01 00:09:28.675, -0.008, 0.038, 0.998, 0.061, 0.183, 0.122, , , , , , , 1.829, 0.28, -104.134,
 13:45:17.637,eb:33:2e:f9:57:b5, 2015-01-01 00:09:28.675, -0.009, 0.039, 1, 0.122, 0.183, 0.122, , , , , , , 1.835, 0.28, -104.134,
 13:45:17.637,eb:33:2e:f9:57:b5, 2015-01-01 00:09:28.675, -0.011, 0.039, 0.999, 0.183, 0.183, 0.183, , , , , , , 1.835, 0.28, -104.134,
 13:45:17.638,eb:33:2e:f9:57:b5, 2015-01-01 00:09:28.675, -0.01, 0.038, 0.998, 0.244, 0.183, 0.305, , , , , , , 1.835, 0.28, -104.134,
 13:45:17.638,eb:33:2e:f9:57:b5, 2015-01-01 00:09:28.675, -0.01, 0.039, 0.998, 0.244, 0.183, 0.183, , , , , , , 1.835, 0.28, -104.134,
 13:45:17.638,eb:33:2e:f9:57:b5, 2015-01-01 00:09:28.675, -0.012, 0.039, 0.997, 0.305, 0.061, 0.305, , , , , , , 1.835, 0.28, -104.134,
 13:45:17.638,eb:33:2e:f9:57:b5, 2015-01-01 00:09:28.675, -0.011, 0.039, 0.995, 0.244, 0, 0.244, , , , , , , 1.835, 0.28, -104.134,
 13:45:17.638,eb:33:2e:f9:57:b5, 2015-01-01 00:09:28.675, -0.01, 0.04, 0.996, 0.183, 0, 0.244, , , , , , , 1.835, 0.28, -104.134,
 13:45:17.638,eb:33:2e:f9:57:b5, 2015-01-01 00:09:28.675, -0.008, 0.039, 0.998, 0.122, 0, 0.244, , , , , , , 1.835, 0.28, -104.134,
 13:45:17.638,eb:33:2e:f9:57:b5, 2015-01-01 00:09:28.675, -0.01, 0.04, 0.998, 0.183, 0, 0.183, , , , , , , 1.84, 0.28, -104.134,
 13:45:17.638,eb:33:2e:f9:57:b5, 2015-01-01 00:09:28.675, -0.01, 0.04, 0.996, 0.122, 0.061, 0.122, , , , , , , 1.84, 0.28, -104.134,
 13:45:17.641,eb:33:2e:f9:57:b5, 2015-01-01 00:09:28.675, -0.01, 0.04, 0.996, 0, 0, 0.122, , , , , , , 1.84, 0.286, -104.139,
 13:45:17.641,eb:33:2e:f9:57:b5, 2015-01-01 00:09:28.675, -0.009, 0.04, 0.996, 0, 0.061, 0.183, , , , , , , 1.84, 0.286, -104.139,
 13:45:17.641,eb:33:2e:f9:57:b5, 2015-01-01 00:09:28.675, -0.011, 0.041, 0.997, 0, 0.061, 0.122, , , , , , , 1.84, 0.286, -104.139,
 13:45:17.641,eb:33:2e:f9:57:b5, 2015-01-01 00:09:28.675, -0.011, 0.039, 0.996, 0, 0, 0.122, , , , , , , 1.84, 0.286, -104.139,
 13:45:17.641,eb:33:2e:f9:57:b5, 2015-01-01 00:09:28.675, -0.008, 0.039, 0.997, 0, -0.061, 0.061, , , , , , , 1.84, 0.286, -104.139,
 13:45:17.642,eb:33:2e:f9:57:b5, 2015-01-01 00:09:28.675, -0.009, 0.039, 0.999, 0, 0, 0.061, , , , , , , 1.84, 0.286, -104.139,
 13:45:17.642,eb:33:2e:f9:57:b5, 2015-01-01 00:09:28.675, -0.01, 0.039, 0.999, 0, 0.061, 0.122, , , , , , , 1.846, 0.286, -104.139,
 13:45:17.642,eb:33:2e:f9:57:b5, 2015-01-01 00:09:28.675, -0.011, 0.039, 0.998, 0.061, 0.183, 0.183, , , , , , , 1.846, 0.286, -104.139,
 13:45:17.646,eb:33:2e:f9:57:b5, 2015-01-01 00:09:28.675, -0.01, 0.039, 0.997, 0.061, 0.122, 0.244, , , , , , , 1.846, 0.286, -104.139,
 13:45:17.646,eb:33:2e:f9:57:b5, 2015-01-01 00:09:28.675, -0.01, 0.041, 0.997, 0, 0, 0.122, , , , , , , 1.851, 0.291, -104.145,
 13:45:17.646,eb:33:2e:f9:57:b5, 2015-01-01 00:09:28.675, -0.009, 0.041, 0.997, 0, 0, 0.183, , , , , , , 1.851, 0.291, -104.145,
 13:45:17.646,eb:33:2e:f9:57:b5, 2015-01-01 00:09:28.675, -0.01, 0.04, 0.998, 0, 0, 0.183, , , , , , , 1.851, 0.291, -104.145,
 13:45:17.646,eb:33:2e:f9:57:b5, 2015-01-01 00:09:28.675, -0.01, 0.04, 0.998, 0, 0, 0.122, , , , , , , 1.851, 0.291, -104.145,
 13:45:17.646,eb:33:2e:f9:57:b5, 2015-01-01 00:09:28.675, -0.01, 0.04, 0.999, 0, 0.061, 0.183, , , , , , , 1.851, 0.291, -104.145,
 13:45:17.646,eb:33:2e:f9:57:b5, 2015-01-01 00:09:28.675, -0.01, 0.039, 0.998, 0.061, 0.122, 0.183, , , , , , , 1.857, 0.291, -104.145,
 13:45:17.646,eb:33:2e:f9:57:b5, 2015-01-01 00:09:28.675, -0.011, 0.039, 0.999, 0.061, 0.122, 0.244, , , , , , , 1.857, 0.291, -104.145,
 13:45:17.659,eb:33:2e:f9:57:b5, 2015-01-01 00:09:28.675, -0.01, 0.038, 0.999, 0.244, 0.122, 0.183, , , , , , , 1.857, 0.291, -104.145,
 13:45:17.659,eb:33:2e:f9:57:b5, 2015-01-01 00:09:28.675, -0.009, 0.038, 0.999, 0.305, 0.122, 0.305, , , , , , , 1.857, 0.291, -104.145,
 13:45:17.659,eb:33:2e:f9:57:b5, 2015-01-01 00:09:28.675, -0.01, 0.038, 1, 0.366, 0.183, 0.244, , , , , , , 1.857, 0.297, -104.145,
 13:45:17.659,eb:33:2e:f9:57:b5, 2015-01-01 00:09:28.675, -0.011, 0.039, 0.999, 0.488, 0.244, 0.366, , , , , , , 1.857, 0.297, -104.145,
 13:45:17.659,eb:33:2e:f9:57:b5, 2015-01-01 00:09:28.675, -0.009, 0.04, 0.999, 0.488, 0.244, 0.305, , , , , , , 1.857, 0.297, -104.15,
 13:45:17.659,eb:33:2e:f9:57:b5, 2015-01-01 00:09:28.675, -0.008, 0.038, 1, 0.549, 0.305, 0.366, , , , , , , 1.857, 0.297, -104.15,
 13:45:17.659,eb:33:2e:f9:57:b5, 2015-01-01 00:09:28.675, -0.012, 0.04, 0.998, 0.549, 0.366, 0.366, , , , , , , 1.857, 0.297, -104.15,
 13:45:17.659,eb:33:2e:f9:57:b5, 2015-01-01 00:09:28.675, -0.013, 0.041, 0.995, 0.488, 0.305, 0.366, , , , , , , 1.857, 0.297, -104.15,
 13:45:17.747,eb:33:2e:f9:57:b5, 2015-01-01 00:09:28.675, -0.009, 0.04, 0.995, 0.427, 0.244, 0.244, , , , , , , 1.857, 0.297, -104.15,
 13:45:17.747,eb:33:2e:f9:57:b5, 2015-01-01 00:09:28.675, -0.008, 0.04, 0.998, 0.427, 0.305, 0.305, , , , , , , 1.857, 0.297, -104.15,
 13:45:17.747,eb:33:2e:f9:57:b5, 2015-01-01 00:09:28.675, -0.01, 0.042, 0.998, 0.366, 0.366, 0.244, , , , , , , 1.862, 0.297, -104.15,
 13:45:17.747,eb:33:2e:f9:57:b5, 2015-01-01 00:09:28.675, -0.011, 0.041, 0.995, 0.305, 0.427, 0.305, , , , , , , 1.862, 0.297, -104.15,
 13:45:17.747,eb:33:2e:f9:57:b5, 2015-01-01 00:09:28.675, -0.01, 0.042, 0.996, 0.244, 0.427, 0.244, , , , , , , 1.862, 0.297, -104.15,
 13:45:17.747,eb:33:2e:f9:57:b5, 2015-01-01 00:09:28.675, -0.008, 0.041, 0.998, 0.305, 0.366, 0.244, , , , , , , 1.862, 0.297, -104.15,
 13:45:17.748,eb:33:2e:f9:57:b5, 2015-01-01 00:09:28.675, -0.01, 0.039, 1, 0.305, 0.549, 0.305, , , , , , , 1.862, 0.302, -104.15,
 13:45:17.748,eb:33:2e:f9:57:b5, 2015-01-01 00:09:28.675, -0.012, 0.04, 0.998, 0.366, 0.488, 0.305, , , , , , , 1.862, 0.302, -104.15,
 13:45:17.770,eb:33:2e:f9:57:b5, 2015-01-01 00:09:28.675, -0.012, 0.04, 0.997, 0.366, 0.488, 0.305, , , , , , , 1.862, 0.302, -104.15,
 13:45:17.770,eb:33:2e:f9:57:b5, 2015-01-01 00:09:28.675, -0.012, 0.041, 0.997, 0.366, 0.427, 0.305, , , , , , , 1.862, 0.302, -104.15,
 13:45:17.770,eb:33:2e:f9:57:b5, 2015-01-01 00:09:28.675, -0.013, 0.041, 0.996, 0.427, 0.366, 0.305, , , , , , , 1.868, 0.302, -104.15,
 13:45:17.770,eb:33:2e:f9:57:b5, 2015-01-01 00:09:28.675, -0.012, 0.041, 0.996, 0.427, 0.305, 0.305, , , , , , , 1.868, 0.302, -104.15,
 13:45:17.770,eb:33:2e:f9:57:b5, 2015-01-01 00:09:28.675, -0.011, 0.04, 0.997, 0.427, 0.244, 0.305, , , , , , , 1.868, 0.302, -104.156,
 13:45:17.770,eb:33:2e:f9:57:b5, 2015-01-01 00:09:28.675, -0.012, 0.041, 0.997, 0.366, 0.244, 0.305, , , , , , , 1.868, 0.302, -104.156,
 13:45:17.770,eb:33:2e:f9:57:b5, 2015-01-01 00:09:28.675, -0.012, 0.042, 0.996, 0.366, 0.183, 0.305, , , , , , , 1.868, 0.302, -104.156,
 13:45:17.770,eb:33:2e:f9:57:b5, 2015-01-01 00:09:28.675, -0.01, 0.041, 0.995, 0.366, 0.122, 0.305, , , , , , , 1.868, 0.302, -104.156,
 13:45:17.772,eb:33:2e:f9:57:b5, 2015-01-01 00:09:28.675, -0.01, 0.041, 0.995, 0.244, 0.122, 0.183, , , , , , , 1.868, 0.302, -104.156,
 13:45:17.772,eb:33:2e:f9:57:b5, 2015-01-01 00:09:28.675, -0.01, 0.04, 0.998, 0.183, 0.122, 0.244, , , , , , , 1.868, 0.302, -104.156,
 13:45:17.772,eb:33:2e:f9:57:b5, 2015-01-01 00:09:28.675, -0.009, 0.041, 0.999, 0.183, 0.244, 0.305, , , , , , , 1.873, 0.308, -104.156,
 13:45:17.772,eb:33:2e:f9:57:b5, 2015-01-01 00:09:28.675, -0.011, 0.041, 0.999, 0.244, 0.244, 0.305, , , , , , , 1.873, 0.308, -104.156,
 13:45:17.772,eb:33:2e:f9:57:b5, 2015-01-01 00:09:28.675, -0.011, 0.041, 0.997, 0.183, 0.305, 0.244, , , , , , , 1.873, 0.308, -104.156,
 13:45:17.772,eb:33:2e:f9:57:b5, 2015-01-01 00:09:28.675, -0.011, 0.042, 0.996, 0.183, 0.244, 0.244, , , , , , , 1.873, 0.308, -104.156,
 13:45:17.772,eb:33:2e:f9:57:b5, 2015-01-01 00:09:28.675, -0.01, 0.041, 0.996, 0.183, 0.244, 0.244, , , , , , , 1.873, 0.308, -104.156,
 13:45:17.772,eb:33:2e:f9:57:b5, 2015-01-01 00:09:28.675, -0.01, 0.041, 0.998, 0.183, 0.244, 0.305, , , , , , , 1.873, 0.308, -104.156,
 13:45:18.266,eb:33:2e:f9:57:b5, 2015-01-01 00:09:28.675, -0.01, 0.04, 0.998, 0.244, 0.305, 0.305, , , , , , , 1.873, 0.308, -104.156,
 13:45:18.266,eb:33:2e:f9:57:b5, 2015-01-01 00:09:28.675, -0.009, 0.04, 0.998, 0.305, 0.244, 0.305, , , , , , , 1.873, 0.308, -104.156,
 13:45:18.266,eb:33:2e:f9:57:b5, 2015-01-01 00:09:28.675, -0.009, 0.041, 0.999, 0.366, 0.427, 0.305, , , , , , , 1.879, 0.308, -104.156,
 13:45:18.266,eb:33:2e:f9:57:b5, 2015-01-01 00:09:28.675, -0.013, 0.041, 1, 0.366, 0.549, 0.366, , , , , , , 1.879, 0.308, -104.156,
 13:45:18.266,eb:33:2e:f9:57:b5, 2015-01-01 00:09:28.675, -0.012, 0.041, 0.998, 0.366, 0.549, 0.305, , , , , , , 1.879, 0.308, -104.161,
 13:45:18.266,eb:33:2e:f9:57:b5, 2015-01-01 00:09:28.675, -0.011, 0.041, 0.998, 0.427, 0.61, 0.366, , , , , , , 1.879, 0.308, -104.161,
 13:45:18.266,eb:33:2e:f9:57:b5, 2015-01-01 00:09:28.675, -0.01, 0.04, 1, 0.488, 0.61, 0.305, , , , , , , 1.879, 0.313, -104.161,
 13:45:18.266,eb:33:2e:f9:57:b5, 2015-01-01 00:09:28.675, -0.012, 0.039, 1.001, 0.671, 0.671, 0.427, , , , , , , 1.879, 0.313, -104.161,
 13:45:18.311,eb:33:2e:f9:57:b5, 2015-01-01 00:09:29.415, -0.013, 0.04, 0.998, 0.671, 0.61, 0.488, , , , , , , 1.884, 0.313, -104.161,
 13:45:18.311,eb:33:2e:f9:57:b5, 2015-01-01 00:09:29.415, -0.014, 0.041, 0.996, 0.61, 0.549, 0.427, , , , , , , 1.884, 0.313, -104.161,
 13:45:18.311,eb:33:2e:f9:57:b5, 2015-01-01 00:09:29.415, -0.013, 0.041, 0.995, 0.549, 0.427, 0.427, , , , , , , 1.884, 0.313, -104.161,
 13:45:18.311,eb:33:2e:f9:57:b5, 2015-01-01 00:09:29.415, -0.013, 0.042, 0.995, 0.549, 0.305, 0.427, , , , , , , 1.884, 0.313, -104.161,
 13:45:18.311,eb:33:2e:f9:57:b5, 2015-01-01 00:09:29.415, -0.013, 0.041, 0.995, 0.427, 0.244, 0.427, , , , , , , 1.884, 0.313, -104.161,
 13:45:18.311,eb:33:2e:f9:57:b5, 2015-01-01 00:09:29.415, -0.013, 0.042, 0.994, 0.305, 0.061, 0.366, , , , , , , 1.884, 0.313, -104.161,
 13:45:18.311,eb:33:2e:f9:57:b5, 2015-01-01 00:09:29.415, -0.011, 0.043, 0.993, 0.244, 0, 0.305, , , , , , , 1.884, 0.313, -104.161,
 13:45:18.311,eb:33:2e:f9:57:b5, 2015-01-01 00:09:29.415, -0.01, 0.043, 0.995, 0.122, 0, 0.244, , , , , , , 1.884, 0.313, -104.161,
 13:45:18.557,eb:33:2e:f9:57:b5, 2015-01-01 00:09:29.415, -0.01, 0.041, 0.997, 0.061, 0, 0.244, , , , , , , 1.89, 0.313, -104.161,
 13:45:18.557,eb:33:2e:f9:57:b5, 2015-01-01 00:09:29.415, -0.011, 0.042, 0.998, 0.061, 0.122, 0.122, , , , , , , 1.89, 0.313, -104.161,
 13:45:18.558,eb:33:2e:f9:57:b5, 2015-01-01 00:09:29.415, -0.013, 0.042, 0.996, 0, 0.122, 0.122, , , , , , , 1.89, 0.319, -104.161,
 13:45:18.558,eb:33:2e:f9:57:b5, 2015-01-01 00:09:29.415, -0.013, 0.043, 0.995, 0, 0.061, 0.122, , , , , , , 1.89, 0.319, -104.161,
 13:45:18.558,eb:33:2e:f9:57:b5, 2015-01-01 00:09:29.415, -0.012, 0.043, 0.995, -0.061, 0, 0.061, , , , , , , 1.89, 0.319, -104.167,
 13:45:18.558,eb:33:2e:f9:57:b5, 2015-01-01 00:09:29.415, -0.012, 0.042, 0.997, -0.122, 0, 0.122, , , , , , , 1.89, 0.319, -104.167,
 13:45:18.558,eb:33:2e:f9:57:b5, 2015-01-01 00:09:29.415, -0.013, 0.042, 0.996, -0.122, -0.061, 0.122, , , , , , , 1.895, 0.319, -104.167,
 13:45:18.558,eb:33:2e:f9:57:b5, 2015-01-01 00:09:29.415, -0.014, 0.042, 0.994, -0.183, -0.122, 0.122, , , , , , , 1.895, 0.319, -104.167,
 13:45:18.740,eb:33:2e:f9:57:b5, 2015-01-01 00:09:29.415, -0.014, 0.042, 0.992, -0.244, -0.305, 0.061, , , , , , , 1.895, 0.319, -104.167,
 13:45:18.740,eb:33:2e:f9:57:b5, 2015-01-01 00:09:29.415, -0.011, 0.042, 0.996, -0.244, -0.427, 0.061, , , , , , , 1.895, 0.319, -104.167,
 13:45:18.740,eb:33:2e:f9:57:b5, 2015-01-01 00:09:29.415, -0.011, 0.041, 0.998, -0.244, -0.366, 0.061, , , , , , , 1.895, 0.324, -104.167,
 13:45:18.740,eb:33:2e:f9:57:b5, 2015-01-01 00:09:29.415, -0.011, 0.041, 0.999, -0.122, -0.366, 0.061, , , , , , , 1.895, 0.324, -104.167,
 13:45:18.740,eb:33:2e:f9:57:b5, 2015-01-01 00:09:29.415, -0.013, 0.042, 0.997, -0.122, -0.305, 0.122, , , , , , , 1.895, 0.324, -104.167,
 13:45:18.740,eb:33:2e:f9:57:b5, 2015-01-01 00:09:29.415, -0.014, 0.042, 0.995, -0.183, -0.366, 0.122, , , , , , , 1.895, 0.324, -104.167,
 13:45:18.740,eb:33:2e:f9:57:b5, 2015-01-01 00:09:29.415, -0.011, 0.042, 0.996, -0.244, -0.488, 0.122, , , , , , , 1.901, 0.324, -104.167,
 13:45:18.740,eb:33:2e:f9:57:b5, 2015-01-01 00:09:29.415, -0.011, 0.042, 0.996, -0.244, -0.488, 0.061, , , , , , , 1.901, 0.324, -104.167,
 13:45:18.875,eb:33:2e:f9:57:b5, 2015-01-01 00:09:29.415, -0.013, 0.042, 0.995, -0.305, -0.427, 0, , , , , , , 1.901, 0.324, -104.167,
 13:45:18.875,eb:33:2e:f9:57:b5, 2015-01-01 00:09:29.415, -0.013, 0.043, 0.994, -0.427, -0.488, 0, , , , , , , 1.901, 0.324, -104.167,
 13:45:18.875,eb:33:2e:f9:57:b5, 2015-01-01 00:09:29.415, -0.011, 0.042, 0.995, -0.488, -0.549, 0, , , , , , , 1.901, 0.324, -104.167,
 13:45:18.875,eb:33:2e:f9:57:b5, 2015-01-01 00:09:29.415, -0.009, 0.041, 0.998, -0.427, -0.549, 0, , , , , , , 1.901, 0.324, -104.167,
 13:45:18.875,eb:33:2e:f9:57:b5, 2015-01-01 00:09:29.415, -0.011, 0.042, 0.999, -0.427, -0.366, 0, , , , , , , 1.901, 0.324, -104.172,
 13:45:18.875,eb:33:2e:f9:57:b5, 2015-01-01 00:09:29.415, -0.012, 0.041, 0.999, -0.366, -0.305, 0, , , , , , , 1.901, 0.324, -104.172,
 13:45:18.875,eb:33:2e:f9:57:b5, 2015-01-01 00:09:29.415, -0.01, 0.039, 0.999, -0.305, -0.305, 0, , , , , , , 1.906, 0.33, -104.167,
 13:45:18.875,eb:33:2e:f9:57:b5, 2015-01-01 00:09:29.415, -0.008, 0.039, 1.001, -0.183, -0.183, 0.061, , , , , , , 1.906, 0.33, -104.167,
 13:45:18.986,eb:33:2e:f9:57:b5, 2015-01-01 00:09:29.415, -0.023, 0.04, 1.004, 0, 0, 0.061, , , , , , , 1.906, 0.33, -104.172,
 13:45:18.986,eb:33:2e:f9:57:b5, 2015-01-01 00:09:29.415, -0.024, 0.046, 0.987, -0.427, -0.427, -0.244, , , , , , , 1.95, 0.363, -104.189,
 13:45:18.986,eb:33:2e:f9:57:b5, 2015-01-01 00:09:29.415, -0.02, 0.045, 0.988, -0.549, -0.793, -0.305, , , , , , , 1.95, 0.363, -104.189,
 13:45:18.986,eb:33:2e:f9:57:b5, 2015-01-01 00:09:29.415, -0.016, 0.042, 0.995, -0.549, -1.038, -0.244, , , , , , , 1.95, 0.363, -104.189,
 13:45:18.986,eb:33:2e:f9:57:b5, 2015-01-01 00:09:29.415, -0.013, 0.044, 0.998, -0.488, -1.099, -0.244, , , , , , , 1.95, 0.363, -104.189,
 13:45:18.986,eb:33:2e:f9:57:b5, 2015-01-01 00:09:29.415, -0.012, 0.047, 0.998, -0.488, -1.038, -0.183, , , , , , , 1.95, 0.363, -104.189,
 13:45:18.986,eb:33:2e:f9:57:b5, 2015-01-01 00:09:29.415, -0.013, 0.045, 1, -0.366, -0.916, -0.183, , , , , , , 1.95, 0.363, -104.189,
 13:45:18.986,eb:33:2e:f9:57:b5, 2015-01-01 00:09:29.415, -0.011, 0.046, 1, -0.244, -0.854, -0.183, , , , , , , 1.95, 0.363, -104.189,
 13:45:19.143,eb:33:2e:f9:57:b5, 2015-01-01 00:09:29.415, -0.006, 0.047, 1, -0.244, -0.61, -0.183, , , , , , , 1.95, 0.363, -104.189,
 13:45:19.143,eb:33:2e:f9:57:b5, 2015-01-01 00:09:29.415, -0.001, 0.044, 1.009, -0.061, -0.122, -0.183, , , , , , , 1.95, 0.363, -104.189,
 13:45:19.143,eb:33:2e:f9:57:b5, 2015-01-01 00:09:29.415, -0.01, 0.042, 1.014, 0.244, 0.488, 0, , , , , , , 1.95, 0.363, -104.189,
 13:45:19.143,eb:33:2e:f9:57:b5, 2015-01-01 00:09:29.415, -0.016, 0.045, 1.006, 0.488, 0.793, 0, , , , , , , 1.95, 0.363, -104.189,
 13:45:19.143,eb:33:2e:f9:57:b5, 2015-01-01 00:09:29.415, -0.011, 0.044, 1, 0.61, 0.854, 0.061, , , , , , , 1.95, 0.363, -104.189,
 13:45:19.143,eb:33:2e:f9:57:b5, 2015-01-01 00:09:29.415, -0.009, 0.042, 1.007, 0.854, 1.16, 0.122, , , , , , , 1.95, 0.363, -104.189,
 13:45:19.143,eb:33:2e:f9:57:b5, 2015-01-01 00:09:29.415, -0.019, 0.042, 1.009, 1.099, 1.587, 0.366, , , , , , , 1.95, 0.363, -104.189,
 13:45:19.143,eb:33:2e:f9:57:b5, 2015-01-01 00:09:29.415, -0.018, 0.042, 0.998, 1.16, 1.526, 0.549, , , , , , , 1.95, 0.363, -104.189,
 13:45:19.145,eb:33:2e:f9:57:b5, 2015-01-01 00:09:29.415, -0.016, 0.043, 0.998, 1.16, 1.526, 0.61, , , , , , , 1.95, 0.363, -104.189,
 13:45:19.145,eb:33:2e:f9:57:b5, 2015-01-01 00:09:29.415, -0.008, 0.05, 0.999, -1.404, -1.709, -0.549, , , , , , , 1.961, 0.368, -104.183,
 13:45:19.145,eb:33:2e:f9:57:b5, 2015-01-01 00:09:29.415, -0.013, 0.05, 0.999, -1.465, -1.404, -0.366, , , , , , , 1.961, 0.374, -104.183,
 13:45:19.145,eb:33:2e:f9:57:b5, 2015-01-01 00:09:29.415, -0.007, 0.05, 1.001, -1.465, -1.16, -0.488, , , , , , , 1.961, 0.374, -104.183,
 13:45:19.145,eb:33:2e:f9:57:b5, 2015-01-01 00:09:29.415, -0.008, 0.048, 1.004, -1.465, -0.732, -0.305, , , , , , , 1.961, 0.374, -104.183,
 13:45:19.145,eb:33:2e:f9:57:b5, 2015-01-01 00:09:29.415, -0.012, 0.046, 1.011, -1.16, -0.244, -0.366, , , , , , , 1.961, 0.374, -104.183,
 13:45:19.145,eb:33:2e:f9:57:b5, 2015-01-01 00:09:29.415, -0.011, 0.043, 1.007, -0.916, -0.061, 0, , , , , , , 1.961, 0.374, -104.183,
 13:45:19.145,eb:33:2e:f9:57:b5, 2015-01-01 00:09:29.415, -0.012, 0.049, 1.006, -0.854, 0.366, -0.305, , , , , , , 1.961, 0.374, -104.183,
 13:45:19.346,eb:33:2e:f9:57:b5, 2015-01-01 00:09:29.415, -0.021, 0.042, 1.003, -0.671, 0.366, 0.061, , , , , , , 1.961, 0.374, -104.183,
 13:45:19.346,eb:33:2e:f9:57:b5, 2015-01-01 00:09:29.415, -0.022, 0.047, 0.987, -1.892, -1.099, -0.488, , , , , , , 1.983, 0.39, -104.178,
 13:45:19.346,eb:33:2e:f9:57:b5, 2015-01-01 00:09:29.415, -0.022, 0.044, 0.989, -2.014, -1.465, -0.488, , , , , , , 1.989, 0.396, -104.178,
 13:45:19.346,eb:33:2e:f9:57:b5, 2015-01-01 00:09:29.415, -0.018, 0.044, 0.993, -2.014, -1.587, -0.61, , , , , , , 1.989, 0.396, -104.178,
 13:45:19.346,eb:33:2e:f9:57:b5, 2015-01-01 00:09:29.415, -0.014, 0.041, 1, -1.892, -1.648, -0.671, , , , , , , 1.989, 0.396, -104.178,
 13:45:19.346,eb:33:2e:f9:57:b5, 2015-01-01 00:09:29.415, -0.02, 0.042, 1.001, -1.831, -1.404, -0.549, , , , , , , 1.989, 0.396, -104.178,
 13:45:19.346,eb:33:2e:f9:57:b5, 2015-01-01 00:09:29.415, -0.025, 0.043, 0.994, -1.892, -1.526, -0.366, , , , , , , 1.989, 0.396, -104.178,
 13:45:19.346,eb:33:2e:f9:57:b5, 2015-01-01 00:09:29.415, -0.024, 0.042, 0.99, -1.953, -2.014, -0.305, , , , , , , 1.989, 0.396, -104.178,
 13:45:19.413,eb:33:2e:f9:57:b5, 2015-01-01 00:09:29.415, -0.015, 0.042, 0.99, -2.075, -2.258, -0.305, , , , , , , 1.983, 0.39, -104.183,
 13:45:19.413,eb:33:2e:f9:57:b5, 2015-01-01 00:09:29.415, -0.02, 0.04, 1.004, -2.747, -0.977, -0.061, , , , , , , 1.609, -0.033, -104.266,
 13:45:19.413,eb:33:2e:f9:57:b5, 2015-01-01 00:09:29.415, -0.012, 0.033, 0.998, -2.625, -1.282, 0, , , , , , , 1.599, -0.038, -104.266,
 13:45:19.413,eb:33:2e:f9:57:b5, 2015-01-01 00:09:29.415, -0.01, 0.032, 1.005, -2.38, -1.16, 0, , , , , , , 1.588, -0.044, -104.266,
 13:45:19.413,eb:33:2e:f9:57:b5, 2015-01-01 00:09:29.415, -0.016, 0.031, 1.003, -2.075, -1.16, 0.183, , , , , , , 1.577, -0.049, -104.266,
 13:45:19.413,eb:33:2e:f9:57:b5, 2015-01-01 00:09:29.415, -0.011, 0.034, 0.995, -2.014, -1.343, 0.244, , , , , , , 1.566, -0.055, -104.266,
 13:45:19.413,eb:33:2e:f9:57:b5, 2015-01-01 00:09:29.415, -0.008, 0.036, 0.996, -2.014, -1.404, 0.183, , , , , , , 1.555, -0.06, -104.266,
 13:45:19.413,eb:33:2e:f9:57:b5, 2015-01-01 00:09:29.415, -0.007, 0.035, 0.998, -2.014, -1.404, 0.183, , , , , , , 1.549, -0.066, -104.266,
 13:45:19.482,eb:33:2e:f9:57:b5, 2015-01-01 00:09:29.415, -0.01, 0.034, 0.997, -2.014, -1.404, 0.305, , , , , , , 1.538, -0.071, -104.266,
 13:45:19.482,eb:33:2e:f9:57:b5, 2015-01-01 00:09:29.415, -0.013, 0.03, 1.007, 0.671, 2.441, 0.244, , , , , , , 1.346, -0.231, -104.271,
 13:45:19.482,eb:33:2e:f9:57:b5, 2015-01-01 00:09:29.415, -0.009, 0.028, 1.004, 1.099, 2.136, 0.061, , , , , , , 1.351, -0.214, -104.271,
 13:45:19.482,eb:33:2e:f9:57:b5, 2015-01-01 00:09:29.415, 0, 0.02, 1.016, 1.709, 2.258, 0, , , , , , , 1.357, -0.203, -104.271,
 13:45:19.482,eb:33:2e:f9:57:b5, 2015-01-01 00:09:29.415, -0.02, 0.024, 1.008, 2.136, 2.441, 0.549, , , , , , , 1.368, -0.192, -104.271,
 13:45:19.482,eb:33:2e:f9:57:b5, 2015-01-01 00:09:29.415, -0.031, 0.031, 0.989, 2.075, 2.014, 0.732, , , , , , , 1.379, -0.181, -104.271,
 13:45:19.482,eb:33:2e:f9:57:b5, 2015-01-01 00:09:29.415, -0.024, 0.033, 0.977, 1.831, 1.038, 0.671, , , , , , , 1.39, -0.17, -104.266,
 13:45:19.482,eb:33:2e:f9:57:b5, 2015-01-01 00:09:29.415, -0.018, 0.032, 0.98, 1.465, 0.305, 0.793, , , , , , , 1.401, -0.17, -104.266,
 13:45:19.482,eb:33:2e:f9:57:b5, 2015-01-01 00:09:29.415, 0, 0.033, 0.982, 1.16, -0.244, 0.977, , , , , , , 1.406, -0.17, -104.26,
 13:45:19.482,eb:33:2e:f9:57:b5, 2015-01-01 00:09:29.415, -0.007, 0.021, 1.015, 0.305, 0.61, 0.183, , , , , , , 1.269, -0.253, -104.282,
 13:45:19.482,eb:33:2e:f9:57:b5, 2015-01-01 00:09:29.415, -0.014, 0.025, 1.001, 0.61, 0.549, 0.427, , , , , , , 1.274, -0.247, -104.282,
 13:45:19.482,eb:33:2e:f9:57:b5, 2015-01-01 00:09:29.415, -0.016, 0.029, 0.992, 0.549, 0.244, 0.549, , , , , , , 1.274, -0.247, -104.277,
 13:45:19.482,eb:33:2e:f9:57:b5, 2015-01-01 00:09:29.415, -0.013, 0.028, 0.99, 0.488, -0.122, 0.549, , , , , , , 1.28, -0.242, -104.277,
 13:45:19.482,eb:33:2e:f9:57:b5, 2015-01-01 00:09:29.415, -0.01, 0.028, 0.991, 0.427, -0.488, 0.671, , , , , , , 1.28, -0.247, -104.271,
 13:45:19.483,eb:33:2e:f9:57:b5, 2015-01-01 00:09:29.415, -0.008, 0.029, 0.993, 0.366, -0.793, 0.854, , , , , , , 1.285, -0.247, -104.271,
 13:45:19.483,eb:33:2e:f9:57:b5, 2015-01-01 00:09:29.415, -0.007, 0.032, 0.993, 0.244, -0.977, 0.854, , , , , , , 1.285, -0.253, -104.266,
 13:45:19.485,eb:33:2e:f9:57:b5, 2015-01-01 00:09:29.415, -0.004, 0.032, 0.993, 0.122, -1.038, 0.793, , , , , , , 1.291, -0.258, -104.266,
 13:45:19.485,eb:33:2e:f9:57:b5, 2015-01-01 00:09:29.415, -0.003, 0.033, 0.994, 0, -1.099, 0.732, , , , , , , 1.291, -0.264, -104.26,
 13:45:19.485,eb:33:2e:f9:57:b5, 2015-01-01 00:09:29.415, -0.002, 0.034, 0.992, -0.061, -0.977, 0.671, , , , , , , 1.291, -0.269, -104.26,
 13:45:19.485,eb:33:2e:f9:57:b5, 2015-01-01 00:09:29.415, -0.003, 0.036, 0.993, -0.244, -1.038, 0.488, , , , , , , 1.291, -0.275, -104.255,
 13:45:19.486,eb:33:2e:f9:57:b5, 2015-01-01 00:09:29.415, -0.003, 0.035, 0.994, -0.427, -0.977, 0.366, , , , , , , 1.285, -0.275, -104.255,
 13:45:19.486,eb:33:2e:f9:57:b5, 2015-01-01 00:09:29.415, -0.002, 0.035, 0.995, -0.61, -0.854, 0.183, , , , , , , 1.285, -0.28, -104.255,
 13:45:19.486,eb:33:2e:f9:57:b5, 2015-01-01 00:09:29.415, -0.003, 0.033, 0.995, -0.732, -0.793, 0, , , , , , , 1.28, -0.286, -104.255,
 13:45:19.486,eb:33:2e:f9:57:b5, 2015-01-01 00:09:29.415, -0.002, 0.034, 0.995, -0.854, -0.732, 0, , , , , , , 1.28, -0.286, -104.255,
 13:45:19.505,eb:33:2e:f9:57:b5, 2015-01-01 00:09:29.415, 0, 0.034, 0.995, -1.038, -0.671, -0.061, , , , , , , 1.274, -0.291, -104.255,
 13:45:19.505,eb:33:2e:f9:57:b5, 2015-01-01 00:09:29.415, 0.005, 0.031, 1.003, -0.305, 0.122, -0.427, , , , , , , 1.247, -0.291, -104.293,
 13:45:19.505,eb:33:2e:f9:57:b5, 2015-01-01 00:09:29.415, 0.01, 0.027, 1.012, 0.122, 0.549, -0.488, , , , , , , 1.247, -0.286, -104.299,
 13:45:19.505,eb:33:2e:f9:57:b5, 2015-01-01 00:09:29.415, 0.011, 0.022, 1.024, 0.854, 1.343, -0.549, , , , , , , 1.252, -0.28, -104.299,
 13:45:19.505,eb:33:2e:f9:57:b5, 2015-01-01 00:09:29.415, 0.002, 0.023, 1.021, 1.526, 2.136, -0.427, , , , , , , 1.258, -0.269, -104.304,
 13:45:19.505,eb:33:2e:f9:57:b5, 2015-01-01 00:09:29.415, -0.01, 0.025, 1.009, 1.892, 2.563, -0.244, , , , , , , 1.269, -0.258, -104.304,
 13:45:19.506,eb:33:2e:f9:57:b5, 2015-01-01 00:09:29.415, -0.015, 0.026, 1, 2.136, 2.38, -0.122, , , , , , , 1.28, -0.247, -104.31,
 13:45:19.506,eb:33:2e:f9:57:b5, 2015-01-01 00:09:29.415, -0.01, 0.026, 0.997, 2.258, 2.014, 0, , , , , , , 1.291, -0.236, -104.31,
 13:45:19.509,eb:33:2e:f9:57:b5, 2015-01-01 00:09:29.415, -0.006, 0.027, 0.999, 2.319, 1.892, 0.122, , , , , , , 1.302, -0.225, -104.31,
 13:45:19.509,eb:33:2e:f9:57:b5, 2015-01-01 00:09:29.415, -0.008, 0.028, 0.998, 2.319, 1.831, 0.366, , , , , , , 1.313, -0.214, -104.31,
 13:45:19.509,eb:33:2e:f9:57:b5, 2015-01-01 00:09:29.415, -0.014, 0.031, 0.994, 2.258, 1.709, 0.549, , , , , , , 1.329, -0.203, -104.304,
 13:45:19.509,eb:33:2e:f9:57:b5, 2015-01-01 00:09:29.415, -0.015, 0.034, 0.988, 2.014, 1.282, 0.61, , , , , , , 1.34, -0.198, -104.304,
 13:45:19.509,eb:33:2e:f9:57:b5, 2015-01-01 00:09:29.415, -0.012, 0.034, 0.986, 1.709, 0.854, 0.549, , , , , , , 1.346, -0.192, -104.304,
 13:45:19.509,eb:33:2e:f9:57:b5, 2015-01-01 00:09:29.415, -0.008, 0.034, 0.988, 1.404, 0.488, 0.61, , , , , , , 1.357, -0.187, -104.299,
 13:45:19.509,eb:33:2e:f9:57:b5, 2015-01-01 00:09:29.415, -0.005, 0.034, 0.99, 1.221, 0.305, 0.549, , , , , , , 1.362, -0.181, -104.299,
 13:45:19.509,eb:33:2e:f9:57:b5, 2015-01-01 00:09:29.415, -0.008, 0.037, 0.99, 0.916, 0.244, 0.488, , , , , , , 1.368, -0.181, -104.293,
 13:45:19.753,eb:33:2e:f9:57:b5, 2015-01-01 00:09:29.415, -0.006, 0.038, 0.988, 0.61, 0.122, 0.366, , , , , , , 1.373, -0.181, -104.293,
 13:45:19.753,eb:33:2e:f9:57:b5, 2015-01-01 00:09:29.415, -0.003, 0.03, 1, -0.854, -0.305, -0.427, , , , , , , 1.351, -0.187, -104.31,
 13:45:19.753,eb:33:2e:f9:57:b5, 2015-01-01 00:09:29.415, -0.002, 0.029, 1.004, -0.671, -0.183, -0.427, , , , , , , 1.351, -0.187, -104.315,
 13:45:19.753,eb:33:2e:f9:57:b5, 2015-01-01 00:09:29.415, -0.005, 0.03, 1.002, -0.549, 0, -0.244, , , , , , , 1.346, -0.187, -104.321,
 13:45:19.753,eb:33:2e:f9:57:b5, 2015-01-01 00:09:29.415, -0.009, 0.031, 0.999, -0.488, 0, -0.183, , , , , , , 1.346, -0.187, -104.321,
 13:45:19.753,eb:33:2e:f9:57:b5, 2015-01-01 00:09:29.415, -0.009, 0.031, 0.997, -0.488, -0.061, -0.122, , , , , , , 1.34, -0.187, -104.321,
 13:45:19.753,eb:33:2e:f9:57:b5, 2015-01-01 00:09:29.415, -0.007, 0.03, 0.998, -0.488, -0.183, -0.122, , , , , , , 1.34, -0.187, -104.321,
 13:45:19.754,eb:33:2e:f9:57:b5, 2015-01-01 00:09:29.415, -0.006, 0.031, 0.997, -0.366, -0.244, -0.061, , , , , , , 1.34, -0.187, -104.326,
 13:45:19.818,eb:33:2e:f9:57:b5, 2015-01-01 00:09:29.415, -0.004, 0.03, 0.998, -0.366, -0.244, 0, , , , , , , 1.34, -0.192, -104.326,
 13:45:19.818,eb:33:2e:f9:57:b5, 2015-01-01 00:09:29.415, -0.002, 0.03, 1, -0.305, -0.183, -0.061, , , , , , , 1.335, -0.192, -104.326,
 13:45:19.818,eb:33:2e:f9:57:b5, 2015-01-01 00:09:29.415, -0.006, 0.03, 1, -0.183, -0.061, -0.122, , , , , , , 1.335, -0.192, -104.326,
 13:45:19.818,eb:33:2e:f9:57:b5, 2015-01-01 00:09:29.415, -0.009, 0.029, 0.997, 0, -0.122, -0.061, , , , , , , 1.335, -0.192, -104.332,
 13:45:19.818,eb:33:2e:f9:57:b5, 2015-01-01 00:09:29.415, -0.01, 0.031, 0.993, 0, -0.305, -0.122, , , , , , , 1.335, -0.192, -104.332,
 13:45:19.818,eb:33:2e:f9:57:b5, 2015-01-01 00:09:29.415, -0.009, 0.032, 0.992, -0.183, -0.488, -0.061, , , , , , , 1.335, -0.192, -104.332,
 13:45:19.818,eb:33:2e:f9:57:b5, 2015-01-01 00:09:29.415, -0.004, 0.031, 0.997, -0.122, -0.488, -0.183, , , , , , , 1.335, -0.198, -104.337,
 13:45:19.818,eb:33:2e:f9:57:b5, 2015-01-01 00:09:29.415, -0.002, 0.028, 1.001, 0, -0.427, -0.122, , , , , , , 1.335, -0.198, -104.337,
 13:45:19.865,eb:33:2e:f9:57:b5, 2015-01-01 00:09:29.415, -0.003, 0.029, 1.001, 0.061, -0.244, -0.061, , , , , , , 1.335, -0.198, -104.337,
 13:45:19.865,eb:33:2e:f9:57:b5, 2015-01-01 00:09:29.415, 0, 0.031, 1.002, 0.183, 0, -0.122, , , , , , , 1.34, -0.198, -104.337,
 13:45:19.865,eb:33:2e:f9:57:b5, 2015-01-01 00:09:29.415, -0.002, 0.03, 1.004, 0.305, 0.183, 0, , , , , , , 1.34, -0.198, -104.343,
 13:45:19.865,eb:33:2e:f9:57:b5, 2015-01-01 00:09:29.415, -0.005, 0.03, 1.001, 0.488, 0.305, 0, , , , , , , 1.34, -0.198, -104.343,
 13:45:19.865,eb:33:2e:f9:57:b5, 2015-01-01 00:09:29.415, -0.007, 0.031, 0.999, 0.488, 0.427, 0, , , , , , , 1.346, -0.192, -104.343,
 13:45:19.865,eb:33:2e:f9:57:b5, 2015-01-01 00:09:29.415, -0.009, 0.032, 0.998, 0.488, 0.366, 0, , , , , , , 1.351, -0.192, -104.343,
 13:45:19.865,eb:33:2e:f9:57:b5, 2015-01-01 00:09:29.415, -0.009, 0.031, 0.996, 0.366, 0.305, 0.061, , , , , , , 1.351, -0.187, -104.343,
 13:45:19.865,eb:33:2e:f9:57:b5, 2015-01-01 00:09:29.415, -0.007, 0.031, 0.996, 0.427, 0.122, 0.122, , , , , , , 1.357, -0.187, -104.343,
 13:45:19.954,eb:33:2e:f9:57:b5, 2015-01-01 00:09:29.415, -0.005, 0.032, 0.998, 0.366, 0.061, 0.122, , , , , , , 1.357, -0.187, -104.343,
 13:45:19.954,eb:33:2e:f9:57:b5, 2015-01-01 00:09:29.415, -0.008, 0.034, 0.997, 0.244, 0.061, 0.122, , , , , , , 1.357, -0.187, -104.343,
 13:45:19.954,eb:33:2e:f9:57:b5, 2015-01-01 00:09:29.415, -0.008, 0.033, 0.995, 0.061, 0.061, 0.061, , , , , , , 1.362, -0.181, -104.343,
 13:45:19.954,eb:33:2e:f9:57:b5, 2015-01-01 00:09:29.415, -0.009, 0.032, 0.993, 0.061, 0, 0.122, , , , , , , 1.362, -0.181, -104.343,
 13:45:19.954,eb:33:2e:f9:57:b5, 2015-01-01 00:09:29.415, -0.007, 0.032, 0.993, -0.061, -0.305, 0.183, , , , , , , 1.362, -0.181, -104.343,
 13:45:19.954,eb:33:2e:f9:57:b5, 2015-01-01 00:09:29.415, -0.005, 0.033, 0.995, -0.122, -0.366, 0.122, , , , , , , 1.362, -0.187, -104.343,
 13:45:19.954,eb:33:2e:f9:57:b5, 2015-01-01 00:09:29.415, -0.005, 0.033, 0.997, -0.183, -0.427, 0.122, , , , , , , 1.362, -0.187, -104.343,
 13:45:19.954,eb:33:2e:f9:57:b5, 2015-01-01 00:09:29.415, -0.005, 0.033, 0.996, -0.183, -0.366, 0.122, , , , , , , 1.362, -0.187, -104.343,
 13:45:19.954,eb:33:2e:f9:57:b5, 2015-01-01 00:09:29.415, -0.003, 0.035, 0.991, -0.427, -0.488, 0.061, , , , , , , 1.362, -0.187, -104.343,
 13:45:19.954,eb:33:2e:f9:57:b5, 2015-01-01 00:09:29.415, -0.004, 0.032, 0.996, -0.244, -0.671, 0.244, , , , , , , 1.368, -0.247, -104.332,
 13:45:19.954,eb:33:2e:f9:57:b5, 2015-01-01 00:09:29.415, -0.005, 0.035, 0.995, -0.366, -0.671, 0.183, , , , , , , 1.368, -0.253, -104.332,
 13:45:19.954,eb:33:2e:f9:57:b5, 2015-01-01 00:09:29.415, -0.006, 0.033, 0.993, -0.427, -0.854, 0.305, , , , , , , 1.362, -0.253, -104.332,
 13:45:19.954,eb:33:2e:f9:57:b5, 2015-01-01 00:09:29.415, 0.002, 0.032, 0.999, -0.305, -0.793, 0.122, , , , , , , 1.362, -0.258, -104.332,
 13:45:19.954,eb:33:2e:f9:57:b5, 2015-01-01 00:09:29.415, 0.002, 0.032, 1.006, -0.244, -0.488, 0.061, , , , , , , 1.362, -0.264, -104.332,
 13:45:19.955,eb:33:2e:f9:57:b5, 2015-01-01 00:09:29.415, 0.002, 0.031, 1.005, -0.122, 0, 0, , , , , , , 1.362, -0.264, -104.332,
 13:45:19.955,eb:33:2e:f9:57:b5, 2015-01-01 00:09:29.415, 0, 0.031, 1.006, 0.061, 0.305, 0, , , , , , , 1.362, -0.258, -104.332,
 13:45:19.957,eb:33:2e:f9:57:b5, 2015-01-01 00:09:29.415, -0.002, 0.028, 1.006, 0.366, 0.305, 0.061, , , , , , , 1.362, -0.258, -104.332,
 13:45:19.957,eb:33:2e:f9:57:b5, 2015-01-01 00:09:29.415, -0.003, 0.029, 1.003, 0.549, 0.488, 0.122, , , , , , , 1.368, -0.253, -104.332,
 13:45:19.957,eb:33:2e:f9:57:b5, 2015-01-01 00:09:29.415, -0.005, 0.032, 0.999, 0.549, 0.549, 0.183, , , , , , , 1.373, -0.253, -104.332,
 13:45:19.957,eb:33:2e:f9:57:b5, 2015-01-01 00:09:29.415, -0.004, 0.032, 0.999, 0.671, 0.61, 0.061, , , , , , , 1.373, -0.247, -104.332,
 13:45:19.957,eb:33:2e:f9:57:b5, 2015-01-01 00:09:29.415, -0.006, 0.028, 1.002, 0.793, 0.732, 0.122, , , , , , , 1.379, -0.242, -104.332,
 13:45:19.957,eb:33:2e:f9:57:b5, 2015-01-01 00:09:29.415, -0.004, 0.028, 1.001, 0.977, 0.732, 0.305, , , , , , , 1.384, -0.242, -104.332,
 13:45:19.957,eb:33:2e:f9:57:b5, 2015-01-01 00:09:29.415, -0.003, 0.031, 1.001, 1.038, 0.854, 0.305, , , , , , , 1.39, -0.236, -104.332,
 13:45:19.957,eb:33:2e:f9:57:b5, 2015-01-01 00:09:29.415, -0.007, 0.033, 0.997, 0.977, 0.854, 0.305, , , , , , , 1.395, -0.231, -104.332,
 13:45:20.020,eb:33:2e:f9:57:b5, 2015-01-01 00:09:29.415, -0.004, 0.033, 0.995, 0.977, 0.793, 0.305, , , , , , , 1.401, -0.225, -104.332,
 13:45:20.020,eb:33:2e:f9:57:b5, 2015-01-01 00:09:29.415, -0.005, 0.033, 0.999, 1.282, 1.465, 0.244, , , , , , , 1.45, -0.176, -104.326,
 13:45:20.021,eb:33:2e:f9:57:b5, 2015-01-01 00:09:29.415, -0.006, 0.034, 0.997, 1.282, 1.526, 0.244, , , , , , , 1.472, -0.148, -104.321,
 13:45:20.021,eb:33:2e:f9:57:b5, 2015-01-01 00:09:29.415, -0.006, 0.034, 0.999, 1.221, 1.587, 0.183, , , , , , , 1.472, -0.148, -104.321,
 13:45:20.021,eb:33:2e:f9:57:b5, 2015-01-01 00:09:29.415, -0.007, 0.034, 0.998, 1.221, 1.709, 0.183, , , , , , , 1.472, -0.148, -104.321,
 13:45:20.021,eb:33:2e:f9:57:b5, 2015-01-01 00:09:29.415, -0.007, 0.035, 0.996, 1.16, 1.648, 0.183, , , , , , , 1.472, -0.148, -104.321,
 13:45:20.021,eb:33:2e:f9:57:b5, 2015-01-01 00:09:29.415, -0.007, 0.035, 0.993, 1.038, 1.343, 0.305, , , , , , , 1.489, -0.132, -104.321,
 13:45:20.021,eb:33:2e:f9:57:b5, 2015-01-01 00:09:29.415, -0.006, 0.035, 0.994, 0.916, 1.221, 0.244, , , , , , , 1.489, -0.132, -104.321,
 13:45:20.023,eb:33:2e:f9:57:b5, 2015-01-01 00:09:29.415, -0.009, 0.033, 0.998, 1.038, 1.221, 0.305, , , , , , , 1.489, -0.132, -104.321,
 13:45:20.023,eb:33:2e:f9:57:b5, 2015-01-01 00:09:29.415, -0.011, 0.036, 0.994, 0.854, 1.404, 0.122, , , , , , , 1.516, -0.11, -104.315,
 13:45:20.023,eb:33:2e:f9:57:b5, 2015-01-01 00:09:29.415, -0.014, 0.037, 0.991, 0.61, 1.221, 0.061, , , , , , , 1.522, -0.099, -104.315,
 13:45:20.023,eb:33:2e:f9:57:b5, 2015-01-01 00:09:29.415, -0.012, 0.036, 0.991, 0.488, 1.038, 0, , , , , , , 1.522, -0.099, -104.315,
 13:45:20.023,eb:33:2e:f9:57:b5, 2015-01-01 00:09:29.415, -0.01, 0.035, 0.993, 0.427, 0.793, 0, , , , , , , 1.522, -0.099, -104.315,
 13:45:20.023,eb:33:2e:f9:57:b5, 2015-01-01 00:09:29.415, -0.01, 0.035, 0.995, 0.305, 0.732, 0.122, , , , , , , 1.522, -0.099, -104.315,
 13:45:20.023,eb:33:2e:f9:57:b5, 2015-01-01 00:09:29.415, -0.009, 0.034, 0.997, 0.366, 0.671, 0.122, , , , , , , 1.533, -0.093, -104.31,
 13:45:20.023,eb:33:2e:f9:57:b5, 2015-01-01 00:09:29.415, -0.009, 0.034, 0.997, 0.366, 0.61, 0.122, , , , , , , 1.533, -0.093, -104.31,
 13:45:20.044,eb:33:2e:f9:57:b5, 2015-01-01 00:09:29.415, -0.012, 0.035, 0.995, 0.305, 0.61, 0.061, , , , , , , 1.533, -0.093, -104.31,
 13:45:20.044,eb:33:2e:f9:57:b5, 2015-01-01 00:09:29.415, -0.012, 0.036, 0.993, 0.244, 0.427, 0.183, , , , , , , 1.533, -0.093, -104.31,
 13:45:20.044,eb:33:2e:f9:57:b5, 2015-01-01 00:09:29.415, -0.015, 0.036, 0.992, 0.183, 0.183, 0.183, , , , , , , 1.538, -0.082, -104.31,
 13:45:20.044,eb:33:2e:f9:57:b5, 2015-01-01 00:09:29.415, -0.014, 0.036, 0.991, 0, 0, 0.122, , , , , , , 1.538, -0.082, -104.31,
 13:45:20.044,eb:33:2e:f9:57:b5, 2015-01-01 00:09:29.415, -0.01, 0.035, 0.992, 0, -0.183, 0.122, , , , , , , 1.538, -0.082, -104.31,
 13:45:20.044,eb:33:2e:f9:57:b5, 2015-01-01 00:09:29.415, -0.008, 0.035, 0.995, -0.061, -0.244, 0.122, , , , , , , 1.538, -0.082, -104.31,
 13:45:20.044,eb:33:2e:f9:57:b5, 2015-01-01 00:09:29.415, -0.008, 0.034, 0.998, 0, -0.305, 0.122, , , , , , , 1.544, -0.077, -104.31,
 13:45:20.044,eb:33:2e:f9:57:b5, 2015-01-01 00:09:29.415, -0.007, 0.035, 0.999, 0, -0.183, 0.183, , , , , , , 1.544, -0.077, -104.31,
 13:45:20.089,eb:33:2e:f9:57:b5, 2015-01-01 00:09:29.415, -0.004, 0.036, 0.999, 0.061, -0.122, 0.122, , , , , , , 1.544, -0.077, -104.31,
 13:45:20.089,eb:33:2e:f9:57:b5, 2015-01-01 00:09:29.415, -0.004, 0.035, 1.003, 0.122, 0.061, 0.061, , , , , , , 1.544, -0.077, -104.31,
 13:45:20.089,eb:33:2e:f9:57:b5, 2015-01-01 00:09:29.415, -0.006, 0.034, 1.004, 0.366, 0.244, 0.183, , , , , , , 1.549, -0.071, -104.31,
 13:45:20.089,eb:33:2e:f9:57:b5, 2015-01-01 00:09:29.415, -0.008, 0.034, 1.001, 0.427, 0.427, 0.244, , , , , , , 1.549, -0.071, -104.31,
 13:45:20.089,eb:33:2e:f9:57:b5, 2015-01-01 00:09:29.415, -0.008, 0.035, 0.999, 0.488, 0.427, 0.244, , , , , , , 1.549, -0.071, -104.31,
 13:45:20.089,eb:33:2e:f9:57:b5, 2015-01-01 00:09:29.415, -0.003, 0.035, 1.003, 0.61, 0.488, 0.183, , , , , , , 1.549, -0.071, -104.31,
 13:45:20.090,eb:33:2e:f9:57:b5, 2015-01-01 00:09:29.415, -0.009, 0.036, 1, 0.549, 0.671, 0.305, , , , , , , 1.555, -0.066, -104.31,
 13:45:20.090,eb:33:2e:f9:57:b5, 2015-01-01 00:09:29.415, -0.01, 0.038, 0.996, 0.427, 0.732, 0.244, , , , , , , 1.555, -0.066, -104.31,
 13:45:20.134,eb:33:2e:f9:57:b5, 2015-01-01 00:09:29.415, -0.011, 0.038, 0.993, 0.305, 0.61, 0.061, , , , , , , 1.555, -0.066, -104.31,
 13:45:20.134,eb:33:2e:f9:57:b5, 2015-01-01 00:09:29.415, -0.011, 0.037, 0.993, 0.183, 0.549, 0, , , , , , , 1.555, -0.066, -104.31,
 13:45:20.134,eb:33:2e:f9:57:b5, 2015-01-01 00:09:29.415, -0.011, 0.038, 0.992, 0.061, 0.366, 0.061, , , , , , , 1.56, -0.06, -104.31,
 13:45:20.134,eb:33:2e:f9:57:b5, 2015-01-01 00:09:29.415, -0.01, 0.037, 0.992, 0, 0.305, 0, , , , , , , 1.56, -0.06, -104.31,
 13:45:20.134,eb:33:2e:f9:57:b5, 2015-01-01 00:09:29.415, -0.009, 0.037, 0.993, -0.122, 0.244, -0.122, , , , , , , 1.56, -0.06, -104.31,
 13:45:20.134,eb:33:2e:f9:57:b5, 2015-01-01 00:09:29.415, -0.009, 0.036, 0.996, -0.122, 0.244, -0.061, , , , , , , 1.56, -0.06, -104.31,
 13:45:20.134,eb:33:2e:f9:57:b5, 2015-01-01 00:09:29.415, -0.009, 0.033, 0.999, 0, 0.183, 0, , , , , , , 1.56, -0.055, -104.31,
 13:45:20.134,eb:33:2e:f9:57:b5, 2015-01-01 00:09:29.415, -0.01, 0.033, 1.001, 0.122, 0.305, 0, , , , , , , 1.56, -0.055, -104.31,
 13:45:20.200,eb:33:2e:f9:57:b5, 2015-01-01 00:09:29.415, -0.01, 0.033, 1.002, 0.244, 0.305, 0.061, , , , , , , 1.56, -0.055, -104.31,
 13:45:20.200,eb:33:2e:f9:57:b5, 2015-01-01 00:09:29.415, -0.013, 0.034, 0.999, 0.366, 0.305, 0.183, , , , , , , 1.56, -0.055, -104.31,
 13:45:20.200,eb:33:2e:f9:57:b5, 2015-01-01 00:09:29.415, -0.014, 0.034, 0.996, 0.305, 0.183, 0.244, , , , , , , 1.566, -0.055, -104.304,
 13:45:20.200,eb:33:2e:f9:57:b5, 2015-01-01 00:09:29.415, -0.01, 0.034, 0.994, 0.305, 0, 0.305, , , , , , , 1.566, -0.055, -104.304,
 13:45:20.200,eb:33:2e:f9:57:b5, 2015-01-01 00:09:29.415, -0.009, 0.033, 0.999, 0.366, 0, 0.305, , , , , , , 1.566, -0.055, -104.304,
 13:45:20.200,eb:33:2e:f9:57:b5, 2015-01-01 00:09:29.415, -0.011, 0.034, 0.999, 0.427, 0, 0.488, , , , , , , 1.566, -0.055, -104.304,
 13:45:20.200,eb:33:2e:f9:57:b5, 2015-01-01 00:09:29.415, -0.012, 0.036, 0.995, 0.427, 0, 0.549, , , , , , , 1.571, -0.049, -104.304,
 13:45:20.200,eb:33:2e:f9:57:b5, 2015-01-01 00:09:29.415, -0.011, 0.036, 0.994, 0.366, -0.122, 0.549, , , , , , , 1.571, -0.049, -104.304,
 13:45:20.203,eb:33:2e:f9:57:b5, 2015-01-01 00:09:29.415, -0.007, 0.037, 0.995, 0.305, -0.061, 0.488, , , , , , , 1.571, -0.049, -104.304,
 13:45:20.203,eb:33:2e:f9:57:b5, 2015-01-01 00:09:29.415, -0.007, 0.037, 0.999, 0.244, 0, 0.488, , , , , , , 1.571, -0.049, -104.304,
 13:45:20.203,eb:33:2e:f9:57:b5, 2015-01-01 00:09:29.415, -0.01, 0.037, 0.997, 0.183, 0, 0.488, , , , , , , 1.571, -0.044, -104.304,
 13:45:20.203,eb:33:2e:f9:57:b5, 2015-01-01 00:09:29.415, -0.009, 0.038, 0.995, 0.122, 0, 0.427, , , , , , , 1.571, -0.044, -104.304,
 13:45:20.203,eb:33:2e:f9:57:b5, 2015-01-01 00:09:29.415, -0.008, 0.039, 0.995, 0.061, 0, 0.366, , , , , , , 1.571, -0.044, -104.304,
 13:45:20.203,eb:33:2e:f9:57:b5, 2015-01-01 00:09:29.415, -0.009, 0.039, 0.995, 0, 0, 0.305, , , , , , , 1.571, -0.044, -104.304,
 13:45:20.203,eb:33:2e:f9:57:b5, 2015-01-01 00:09:29.415, -0.01, 0.038, 0.994, -0.122, 0, 0.183, , , , , , , 1.577, -0.038, -104.304,
 13:45:20.203,eb:33:2e:f9:57:b5, 2015-01-01 00:09:29.415, -0.009, 0.037, 0.993, -0.244, -0.061, 0.061, , , , , , , 1.577, -0.038, -104.304,
 13:45:20.246,eb:33:2e:f9:57:b5, 2015-01-01 00:09:29.415, -0.008, 0.037, 0.996, -0.305, -0.122, 0, , , , , , , 1.577, -0.038, -104.304,
 13:45:20.246,eb:33:2e:f9:57:b5, 2015-01-01 00:09:29.415, -0.007, 0.037, 0.999, -0.305, 0, 0, , , , , , , 1.577, -0.038, -104.304,
 13:45:20.246,eb:33:2e:f9:57:b5, 2015-01-01 00:09:29.415, -0.009, 0.036, 0.999, -0.244, 0, 0, , , , , , , 1.577, -0.038, -104.304,
 13:45:20.246,eb:33:2e:f9:57:b5, 2015-01-01 00:09:29.415, -0.01, 0.035, 0.998, -0.244, 0.061, 0, , , , , , , 1.577, -0.038, -104.304,
 13:45:20.246,eb:33:2e:f9:57:b5, 2015-01-01 00:09:29.415, -0.012, 0.036, 0.996, -0.244, 0, 0, , , , , , , 1.577, -0.038, -104.304,
 13:45:20.246,eb:33:2e:f9:57:b5, 2015-01-01 00:09:29.415, -0.009, 0.035, 0.996, -0.183, 0, 0, , , , , , , 1.577, -0.038, -104.304,
 13:45:20.246,eb:33:2e:f9:57:b5, 2015-01-01 00:09:29.415, -0.009, 0.034, 1, -0.061, 0, 0, , , , , , , 1.582, -0.033, -104.304,
 13:45:20.246,eb:33:2e:f9:57:b5, 2015-01-01 00:09:29.415, -0.011, 0.033, 1, 0, 0.061, 0.122, , , , , , , 1.582, -0.033, -104.304,
 13:45:20.336,eb:33:2e:f9:57:b5, 2015-01-01 00:09:29.415, -0.011, 0.033, 0.998, 0, 0, 0.244, , , , , , , 1.582, -0.033, -104.304,
 13:45:20.336,eb:33:2e:f9:57:b5, 2015-01-01 00:09:29.415, -0.011, 0.036, 0.997, 0, 0, 0.183, , , , , , , 1.582, -0.033, -104.304,
 13:45:20.336,eb:33:2e:f9:57:b5, 2015-01-01 00:09:29.415, -0.011, 0.036, 0.997, 0, 0, 0.183, , , , , , , 1.588, -0.033, -104.304,
 13:45:20.336,eb:33:2e:f9:57:b5, 2015-01-01 00:09:29.415, -0.012, 0.036, 0.996, 0, -0.122, 0.183, , , , , , , 1.588, -0.033, -104.304,
 13:45:20.337,eb:33:2e:f9:57:b5, 2015-01-01 00:09:29.415, -0.01, 0.036, 0.996, 0, -0.183, 0.305, , , , , , , 1.588, -0.033, -104.304,
 13:45:20.337,eb:33:2e:f9:57:b5, 2015-01-01 00:09:29.415, -0.007, 0.036, 0.997, 0, -0.244, 0.244, , , , , , , 1.588, -0.033, -104.304,
 13:45:20.337,eb:33:2e:f9:57:b5, 2015-01-01 00:09:29.415, -0.008, 0.037, 0.998, -0.061, -0.122, 0.183, , , , , , , 1.588, -0.027, -104.304,
 13:45:20.337,eb:33:2e:f9:57:b5, 2015-01-01 00:09:29.415, -0.01, 0.037, 0.997, -0.122, -0.061, 0.122, , , , , , , 1.588, -0.027, -104.304,
 13:45:20.337,eb:33:2e:f9:57:b5, 2015-01-01 00:09:29.415, -0.01, 0.037, 0.996, -0.183, -0.122, 0.061, , , , , , , 1.588, -0.027, -104.304,
 13:45:20.337,eb:33:2e:f9:57:b5, 2015-01-01 00:09:29.415, -0.008, 0.038, 0.996, -0.244, -0.061, 0, , , , , , , 1.588, -0.027, -104.304,
 13:45:20.338,eb:33:2e:f9:57:b5, 2015-01-01 00:09:29.415, -0.008, 0.038, 0.997, -0.305, -0.061, 0, , , , , , , 1.593, -0.022, -104.304,
 13:45:20.338,eb:33:2e:f9:57:b5, 2015-01-01 00:09:29.415, -0.01, 0.037, 0.996, -0.427, 0, -0.061, , , , , , , 1.593, -0.022, -104.304,
 13:45:20.338,eb:33:2e:f9:57:b5, 2015-01-01 00:09:29.415, -0.011, 0.037, 0.995, -0.427, -0.061, -0.122, , , , , , , 1.593, -0.022, -104.304,
 13:45:20.338,eb:33:2e:f9:57:b5, 2015-01-01 00:09:29.415, -0.011, 0.036, 0.995, -0.488, -0.061, -0.122, , , , , , , 1.593, -0.022, -104.304,
 13:45:20.338,eb:33:2e:f9:57:b5, 2015-01-01 00:09:29.415, -0.01, 0.036, 0.995, -0.549, -0.183, -0.061, , , , , , , 1.593, -0.022, -104.304,
 13:45:20.338,eb:33:2e:f9:57:b5, 2015-01-01 00:09:29.415, -0.01, 0.036, 0.996, -0.549, -0.244, -0.061, , , , , , , 1.593, -0.022, -104.304,
 13:45:20.360,eb:33:2e:f9:57:b5, 2015-01-01 00:09:29.415, -0.009, 0.035, 0.998, -0.549, -0.305, -0.061, , , , , , , 1.593, -0.022, -104.304,
 13:45:20.360,eb:33:2e:f9:57:b5, 2015-01-01 00:09:29.415, -0.009, 0.034, 0.999, -0.488, -0.366, -0.061, , , , , , , 1.593, -0.022, -104.304,
 13:45:20.360,eb:33:2e:f9:57:b5, 2015-01-01 00:09:29.415, -0.007, 0.034, 1, -0.366, -0.366, 0, , , , , , , 1.599, -0.016, -104.304,
 13:45:20.360,eb:33:2e:f9:57:b5, 2015-01-01 00:09:29.415, -0.004, 0.034, 1.002, -0.183, -0.244, 0, , , , , , , 1.599, -0.016, -104.304,
 13:45:20.360,eb:33:2e:f9:57:b5, 2015-01-01 00:09:29.415, -0.005, 0.034, 1.003, -0.061, 0, 0, , , , , , , 1.599, -0.016, -104.304,
 13:45:20.360,eb:33:2e:f9:57:b5, 2015-01-01 00:09:29.415, -0.009, 0.034, 1.001, 0, 0.122, 0, , , , , , , 1.599, -0.016, -104.304,
 13:45:20.361,eb:33:2e:f9:57:b5, 2015-01-01 00:09:29.415, -0.005, 0.035, 0.998, 0.061, 0.244, 0.061, , , , , , , 1.599, -0.016, -104.304,
 13:45:20.361,eb:33:2e:f9:57:b5, 2015-01-01 00:09:29.415, -0.009, 0.037, 0.998, 0, 0.305, 0, , , , , , , 1.599, -0.016, -104.304,
 13:45:20.743,eb:33:2e:f9:57:b5, 2015-01-01 00:09:29.415, -0.01, 0.037, 0.997, 0, 0.366, 0, , , , , , , 1.599, -0.016, -104.304,
 13:45:20.743,eb:33:2e:f9:57:b5, 2015-01-01 00:09:29.415, -0.008, 0.037, 0.997, -0.061, 0.305, -0.061, , , , , , , 1.599, -0.016, -104.304,
 13:45:20.743,eb:33:2e:f9:57:b5, 2015-01-01 00:09:29.415, -0.011, 0.037, 0.996, -0.061, 0.366, 0, , , , , , , 1.604, -0.011, -104.299,
 13:45:20.743,eb:33:2e:f9:57:b5, 2015-01-01 00:09:29.415, -0.007, 0.035, 0.996, -0.061, 0.366, -0.122, , , , , , , 1.604, -0.011, -104.299,
 13:45:20.743,eb:33:2e:f9:57:b5, 2015-01-01 00:09:29.415, -0.009, 0.034, 1.001, 0, 0.488, -0.122, , , , , , , 1.604, -0.011, -104.299,
 13:45:20.743,eb:33:2e:f9:57:b5, 2015-01-01 00:09:29.415, -0.011, 0.033, 0.999, 0.061, 0.488, 0, , , , , , , 1.604, -0.011, -104.299,
 13:45:20.745,eb:33:2e:f9:57:b5, 2015-01-01 00:09:29.415, -0.013, 0.037, 0.995, 0, 0.488, 0, , , , , , , 1.604, -0.011, -104.299,
 13:45:20.745,eb:33:2e:f9:57:b5, 2015-01-01 00:09:29.415, -0.014, 0.037, 0.993, -0.061, 0.366, 0, , , , , , , 1.604, -0.011, -104.299,
 13:45:20.745,eb:33:2e:f9:57:b5, 2015-01-01 00:09:29.415, -0.013, 0.034, 0.995, -0.061, 0.183, 0.061, , , , , , , 1.604, -0.011, -104.299,
 13:45:20.745,eb:33:2e:f9:57:b5, 2015-01-01 00:09:29.415, -0.012, 0.033, 0.996, -0.061, 0, 0.122, , , , , , , 1.604, -0.011, -104.299,
 13:45:20.745,eb:33:2e:f9:57:b5, 2015-01-01 00:09:29.415, -0.013, 0.034, 0.995, -0.061, 0, 0.183, , , , , , , 1.604, -0.005, -104.299,
 13:45:20.745,eb:33:2e:f9:57:b5, 2015-01-01 00:09:29.415, -0.011, 0.035, 0.994, -0.122, -0.244, 0.244, , , , , , , 1.604, -0.005, -104.299,
 13:45:20.745,eb:33:2e:f9:57:b5, 2015-01-01 00:09:29.415, -0.008, 0.035, 0.997, -0.183, -0.305, 0.183, , , , , , , 1.604, -0.005, -104.299,
 13:45:20.745,eb:33:2e:f9:57:b5, 2015-01-01 00:09:29.415, -0.003, 0.033, 1.003, 0, -0.183, 0.183, , , , , , , 1.604, -0.005, -104.299,
 13:45:20.745,eb:33:2e:f9:57:b5, 2015-01-01 00:09:29.415, -0.003, 0.033, 1.007, 0.305, 0.122, 0.183, , , , , , , 1.609, 0, -104.299,
 13:45:20.745,eb:33:2e:f9:57:b5, 2015-01-01 00:09:29.415, -0.008, 0.037, 1.004, 0.427, 0.366, 0.183, , , , , , , 1.609, 0, -104.299,
 13:45:20.786,eb:33:2e:f9:57:b5, 2015-01-01 00:09:31.980, -0.014, 0.038, 0.999, 0.305, 0.427, 0.183, , , , , , , 1.609, 0, -104.299,
 13:45:20.786,eb:33:2e:f9:57:b5, 2015-01-01 00:09:31.980, -0.016, 0.036, 0.993, 0.244, 0.305, 0.183, , , , , , , 1.609, 0, -104.299,
 13:45:20.786,eb:33:2e:f9:57:b5, 2015-01-01 00:09:31.980, -0.012, 0.036, 0.992, 0.183, 0.061, 0.122, , , , , , , 1.609, 0, -104.299,
 13:45:20.786,eb:33:2e:f9:57:b5, 2015-01-01 00:09:31.980, -0.01, 0.037, 0.993, 0, 0, 0.122, , , , , , , 1.609, 0, -104.299,
 13:45:20.786,eb:33:2e:f9:57:b5, 2015-01-01 00:09:31.980, -0.009, 0.037, 0.995, 0, -0.061, 0.122, , , , , , , 1.609, 0, -104.299,
 13:45:20.786,eb:33:2e:f9:57:b5, 2015-01-01 00:09:31.980, -0.01, 0.037, 0.994, -0.061, -0.061, 0.061, , , , , , , 1.609, 0, -104.299,
 13:45:20.786,eb:33:2e:f9:57:b5, 2015-01-01 00:09:31.980, -0.011, 0.038, 0.993, -0.244, -0.061, 0, , , , , , , 1.615, 0, -104.299,
 13:45:20.786,eb:33:2e:f9:57:b5, 2015-01-01 00:09:31.980, -0.009, 0.038, 0.995, -0.366, -0.183, 0, , , , , , , 1.615, 0, -104.299,
 13:45:20.876,eb:33:2e:f9:57:b5, 2015-01-01 00:09:31.980, -0.006, 0.037, 0.998, -0.366, -0.183, 0, , , , , , , 1.615, 0, -104.299,
 13:45:20.876,eb:33:2e:f9:57:b5, 2015-01-01 00:09:31.980, -0.007, 0.037, 0.998, -0.427, -0.061, -0.122, , , , , , , 1.615, 0, -104.299,
 13:45:20.876,eb:33:2e:f9:57:b5, 2015-01-01 00:09:31.980, -0.007, 0.037, 0.998, -0.488, 0, -0.183, , , , , , , 1.615, 0, -104.299,
 13:45:20.876,eb:33:2e:f9:57:b5, 2015-01-01 00:09:31.980, -0.007, 0.035, 1, -0.427, 0.061, -0.305, , , , , , , 1.615, 0, -104.299,
 13:45:20.876,eb:33:2e:f9:57:b5, 2015-01-01 00:09:31.980, -0.008, 0.034, 1.001, -0.244, 0.244, -0.244, , , , , , , 1.615, 0, -104.299,
 13:45:20.876,eb:33:2e:f9:57:b5, 2015-01-01 00:09:31.980, -0.007, 0.033, 1.001, -0.183, 0.305, -0.122, , , , , , , 1.615, 0, -104.299,
 13:45:20.876,eb:33:2e:f9:57:b5, 2015-01-01 00:09:31.980, -0.01, 0.035, 1.001, -0.122, 0.305, -0.183, , , , , , , 1.62, 0.005, -104.299,
 13:45:20.876,eb:33:2e:f9:57:b5, 2015-01-01 00:09:31.980, -0.012, 0.034, 1, -0.061, 0.366, -0.061, , , , , , , 1.62, 0.005, -104.299,
 13:45:20.988,eb:33:2e:f9:57:b5, 2015-01-01 00:09:31.980, -0.01, 0.033, 0.997, 0, 0.305, 0, , , , , , , 1.62, 0.005, -104.299,
 13:45:20.988,eb:33:2e:f9:57:b5, 2015-01-01 00:09:31.980, -0.008, 0.034, 1, 0.183, 0.305, 0, , , , , , , 1.62, 0.005, -104.299,
 13:45:20.988,eb:33:2e:f9:57:b5, 2015-01-01 00:09:31.980, -0.006, 0.032, 1.006, 0.427, 0.488, 0, , , , , , , 1.62, 0.005, -104.299,
 13:45:20.988,eb:33:2e:f9:57:b5, 2015-01-01 00:09:31.980, -0.009, 0.032, 1.004, 0.61, 0.671, 0.122, , , , , , , 1.62, 0.005, -104.299,
 13:45:20.988,eb:33:2e:f9:57:b5, 2015-01-01 00:09:31.980, -0.014, 0.036, 1, 0.61, 0.732, 0.244, , , , , , , 1.62, 0.005, -104.299,
 13:45:20.988,eb:33:2e:f9:57:b5, 2015-01-01 00:09:31.980, -0.016, 0.035, 0.996, 0.549, 0.549, 0.244, , , , , , , 1.62, 0.005, -104.299,
 13:45:20.988,eb:33:2e:f9:57:b5, 2015-01-01 00:09:31.980, -0.014, 0.034, 0.994, 0.549, 0.366, 0.244, , , , , , , 1.626, 0.011, -104.299,
 13:45:20.988,eb:33:2e:f9:57:b5, 2015-01-01 00:09:31.980, -0.013, 0.035, 0.992, 0.488, 0.183, 0.305, , , , , , , 1.626, 0.011, -104.299,
 13:45:21.011,eb:33:2e:f9:57:b5, 2015-01-01 00:09:31.980, -0.014, 0.037, 0.992, 0.366, 0.061, 0.305, , , , , , , 1.626, 0.011, -104.299,
 13:45:21.011,eb:33:2e:f9:57:b5, 2015-01-01 00:09:31.980, -0.014, 0.037, 0.991, -0.122, 0.305, -0.244, , , , , , , 1.642, 0.033, -104.299,
 13:45:21.011,eb:33:2e:f9:57:b5, 2015-01-01 00:09:31.980, -0.014, 0.036, 0.992, -0.183, 0.122, -0.305, , , , , , , 1.642, 0.033, -104.293,
 13:45:21.011,eb:33:2e:f9:57:b5, 2015-01-01 00:09:31.980, -0.014, 0.036, 0.993, -0.183, 0, -0.244, , , , , , , 1.642, 0.033, -104.293,
 13:45:21.011,eb:33:2e:f9:57:b5, 2015-01-01 00:09:31.980, -0.016, 0.037, 0.993, -0.366, -0.061, -0.183, , , , , , , 1.642, 0.033, -104.299,
 13:45:21.011,eb:33:2e:f9:57:b5, 2015-01-01 00:09:31.980, -0.016, 0.037, 0.991, -0.488, -0.244, -0.122, , , , , , , 1.642, 0.033, -104.299,
 13:45:21.011,eb:33:2e:f9:57:b5, 2015-01-01 00:09:31.980, -0.012, 0.035, 0.995, -0.427, -0.488, -0.122, , , , , , , 1.648, 0.038, -104.293,
 13:45:21.011,eb:33:2e:f9:57:b5, 2015-01-01 00:09:31.980, -0.011, 0.033, 1, -0.366, -0.427, -0.061, , , , , , , 1.648, 0.038, -104.293,
 13:45:21.080,eb:33:2e:f9:57:b5, 2015-01-01 00:09:31.980, -0.013, 0.033, 1, -0.183, -0.305, 0, , , , , , , 1.648, 0.038, -104.293,
 13:45:21.080,eb:33:2e:f9:57:b5, 2015-01-01 00:09:31.980, -0.011, 0.037, 0.996, -0.183, -0.366, 0, , , , , , , 1.648, 0.038, -104.293,
 13:45:21.080,eb:33:2e:f9:57:b5, 2015-01-01 00:09:31.980, -0.019, 0.04, 0.995, -0.183, -0.488, -0.061, , , , , , , 1.648, 0.038, -104.293,
 13:45:21.080,eb:33:2e:f9:57:b5, 2015-01-01 00:09:31.980, -0.014, 0.036, 0.989, -0.366, -0.854, 0, , , , , , , 1.648, 0.038, -104.293,
 13:45:21.080,eb:33:2e:f9:57:b5, 2015-01-01 00:09:31.980, -0.013, 0.038, 0.993, -0.488, -1.038, 0, , , , , , , 1.648, 0.038, -104.293,
 13:45:21.080,eb:33:2e:f9:57:b5, 2015-01-01 00:09:31.980, -0.014, 0.038, 0.992, -0.61, -1.16, 0, , , , , , , 1.648, 0.038, -104.293,
 13:45:21.080,eb:33:2e:f9:57:b5, 2015-01-01 00:09:31.980, -0.013, 0.039, 0.99, -0.793, -1.343, -0.183, , , , , , , 1.653, 0.044, -104.293,
 13:45:21.080,eb:33:2e:f9:57:b5, 2015-01-01 00:09:31.980, -0.013, 0.041, 0.988, -1.038, -1.465, -0.305, , , , , , , 1.653, 0.044, -104.293,
 13:45:21.191,eb:33:2e:f9:57:b5, 2015-01-01 00:09:31.980, -0.011, 0.04, 0.989, -1.282, -1.587, -0.366, , , , , , , 1.653, 0.044, -104.293,
 13:45:21.191,eb:33:2e:f9:57:b5, 2015-01-01 00:09:31.980, -0.009, 0.04, 0.989, -1.587, -1.648, -0.122, , , , , , , 1.653, 0.044, -104.293,
 13:45:21.191,eb:33:2e:f9:57:b5, 2015-01-01 00:09:31.980, -0.009, 0.039, 0.992, -1.892, -1.587, 0, , , , , , , 1.653, 0.044, -104.293,
 13:45:21.191,eb:33:2e:f9:57:b5, 2015-01-01 00:09:31.980, -0.012, 0.038, 0.994, -1.953, -1.587, 0.122, , , , , , , 1.653, 0.044, -104.293,
 13:45:21.191,eb:33:2e:f9:57:b5, 2015-01-01 00:09:31.980, -0.006, 0.031, 1, -1.831, -1.587, 0.122, , , , , , , 1.653, 0.044, -104.293,
 13:45:21.191,eb:33:2e:f9:57:b5, 2015-01-01 00:09:31.980, 0.002, 0.03, 1.007, -1.404, -1.404, 0.305, , , , , , , 1.653, 0.044, -104.293,
 13:45:21.191,eb:33:2e:f9:57:b5, 2015-01-01 00:09:31.980, 0.009, 0.029, 1.022, -0.61, -0.854, 0.305, , , , , , , 1.653, 0.049, -104.293,
 13:45:21.191,eb:33:2e:f9:57:b5, 2015-01-01 00:09:31.980, 0.001, 0.021, 1.032, 0.244, 0.122, 0.488, , , , , , , 1.653, 0.049, -104.293,
 13:45:21.211,eb:33:2e:f9:57:b5, 2015-01-01 00:09:31.980, -0.014, 0.028, 1.02, 0.854, 0.854, 0.732, , , , , , , 1.653, 0.049, -104.293,
 13:45:21.211,eb:33:2e:f9:57:b5, 2015-01-01 00:09:31.980, -0.015, 0.039, 0.986, -1.038, -0.671, 1.953, , , , , , , 1.653, 0.049, -104.282,
 13:45:21.211,eb:33:2e:f9:57:b5, 2015-01-01 00:09:31.980, -0.012, 0.04, 0.988, -1.404, -0.916, 1.953, , , , , , , 1.648, 0.049, -104.277,
 13:45:21.211,eb:33:2e:f9:57:b5, 2015-01-01 00:09:31.980, -0.011, 0.04, 0.992, -1.587, -0.977, 1.892, , , , , , , 1.642, 0.044, -104.266,
 13:45:21.211,eb:33:2e:f9:57:b5, 2015-01-01 00:09:31.980, -0.01, 0.039, 0.994, -1.831, -1.16, 1.648, , , , , , , 1.631, 0.038, -104.26,
 13:45:21.211,eb:33:2e:f9:57:b5, 2015-01-01 00:09:31.980, -0.013, 0.04, 0.991, -2.075, -1.343, 1.465, , , , , , , 1.626, 0.033, -104.249,
 13:45:21.211,eb:33:2e:f9:57:b5, 2015-01-01 00:09:31.980, -0.01, 0.036, 0.993, -2.197, -1.648, 1.282, , , , , , , 1.615, 0.022, -104.244,
 13:45:21.211,eb:33:2e:f9:57:b5, 2015-01-01 00:09:31.980, -0.002, 0.038, 0.997, -2.319, -1.709, 0.916, , , , , , , 1.604, 0.016, -104.244,
 13:45:21.486,eb:33:2e:f9:57:b5, 2015-01-01 00:09:31.980, -0.001, 0.036, 1, -2.197, -1.648, 0.732, , , , , , , 1.593, 0.005, -104.238,
 13:45:21.486,eb:33:2e:f9:57:b5, 2015-01-01 00:09:31.980, 0.002, 0.015, 1.023, -1.831, -2.258, 0.488, , , , , , , 1.412, -0.099, -104.266,
 13:45:21.486,eb:33:2e:f9:57:b5, 2015-01-01 00:09:31.980, 0.003, 0.012, 1.026, -0.793, -1.77, 1.221, , , , , , , 1.406, -0.11, -104.26,
 13:45:21.486,eb:33:2e:f9:57:b5, 2015-01-01 00:09:31.980, 0.01, 0.02, 1.022, 0, -1.16, 1.465, , , , , , , 1.401, -0.115, -104.255,
 13:45:21.486,eb:33:2e:f9:57:b5, 2015-01-01 00:09:31.980, 0.011, 0.029, 1.021, 0.549, -0.366, 1.465, , , , , , , 1.406, -0.121, -104.249,
 13:45:21.486,eb:33:2e:f9:57:b5, 2015-01-01 00:09:31.980, 0.001, 0.021, 1.03, 1.709, 0.671, 1.221, , , , , , , 1.412, -0.121, -104.244,
 13:45:21.486,eb:33:2e:f9:57:b5, 2015-01-01 00:09:31.980, -0.003, 0.019, 1.019, 2.441, 1.16, 1.526, , , , , , , 1.423, -0.115, -104.238,
 13:45:21.486,eb:33:2e:f9:57:b5, 2015-01-01 00:09:31.980, -0.007, 0.028, 1.008, 2.686, 1.404, 1.587, , , , , , , 1.439, -0.104, -104.233,
 13:45:21.800,eb:33:2e:f9:57:b5, 2015-01-01 00:09:31.980, -0.012, 0.038, 0.995, 2.563, 1.404, 1.465, , , , , , , 1.45, -0.099, -104.222,
 13:45:21.800,eb:33:2e:f9:57:b5, 2015-01-01 00:09:31.980, -0.009, 0.038, 0.99, 2.38, 1.221, 1.099, , , , , , , 1.467, -0.093, -104.216,
 13:45:21.800,eb:33:2e:f9:57:b5, 2015-01-01 00:09:31.980, -0.007, 0.037, 0.989, 2.075, 1.221, 1.221, , , , , , , 1.478, -0.088, -104.211,
 13:45:21.800,eb:33:2e:f9:57:b5, 2015-01-01 00:09:31.980, -0.009, 0.038, 0.988, 1.709, 1.16, 1.465, , , , , , , 1.489, -0.077, -104.205,
 13:45:21.800,eb:33:2e:f9:57:b5, 2015-01-01 00:09:31.980, -0.006, 0.041, 0.986, 1.343, 1.038, 1.526, , , , , , , 1.494, -0.071, -104.2,
 13:45:21.800,eb:33:2e:f9:57:b5, 2015-01-01 00:09:31.980, 0, 0.042, 0.99, 0.916, 1.099, 1.465, , , , , , , 1.5, -0.066, -104.194,
 13:45:21.800,eb:33:2e:f9:57:b5, 2015-01-01 00:09:31.980, -0.001, 0.042, 0.995, 0.61, 1.343, 1.465, , , , , , , 1.505, -0.06, -104.183,
 13:45:21.800,eb:33:2e:f9:57:b5, 2015-01-01 00:09:31.980, -0.003, 0.037, 0.999, 0.488, 1.465, 1.404, , , , , , , 1.505, -0.055, -104.178,
 13:45:22.024,eb:33:2e:f9:57:b5, 2015-01-01 00:09:31.980, -0.008, 0.034, 1.001, 0.488, 1.526, 1.221, , , , , , , 1.511, -0.044, -104.172,
 13:45:22.024,eb:33:2e:f9:57:b5, 2015-01-01 00:09:31.980, -0.01, 0.03, 1.001, 0.61, 1.282, 1.282, , , , , , , 1.516, -0.038, -104.167,
 13:45:22.024,eb:33:2e:f9:57:b5, 2015-01-01 00:09:31.980, -0.015, 0.029, 1.001, 0.732, 0.916, 1.343, , , , , , , 1.516, -0.033, -104.161,
 13:45:22.024,eb:33:2e:f9:57:b5, 2015-01-01 00:09:31.980, -0.016, 0.028, 0.997, 0.793, 0.427, 1.526, , , , , , , 1.522, -0.027, -104.156,
 13:45:22.024,eb:33:2e:f9:57:b5, 2015-01-01 00:09:31.980, -0.016, 0.032, 0.991, 0.732, 0, 1.709, , , , , , , 1.527, -0.027, -104.145,
 13:45:22.024,eb:33:2e:f9:57:b5, 2015-01-01 00:09:31.980, -0.017, 0.036, 0.99, 0.488, -0.305, 1.648, , , , , , , 1.533, -0.027, -104.139,
 13:45:22.024,eb:33:2e:f9:57:b5, 2015-01-01 00:09:31.980, -0.014, 0.038, 0.988, 0.244, -0.793, 1.465, , , , , , , 1.533, -0.033, -104.134,
 13:45:22.024,eb:33:2e:f9:57:b5, 2015-01-01 00:09:31.980, -0.013, 0.039, 0.99, 0, -1.16, 1.404, , , , , , , 1.533, -0.033, -104.128,
 13:45:22.025,eb:33:2e:f9:57:b5, 2015-01-01 00:09:31.980, 0.526, 0.04, 0.995, -0.244, -1.465, 1.038, , , , , , , 1.533, -0.044, -104.123,
 13:45:22.025,eb:33:2e:f9:57:b5, 2015-01-01 00:09:31.980, 0.487, 0.217, 2.141, -34.973, 226.624, -8.423, , , , , , , 1.148, 4.603, -104.008,
 13:45:22.025,eb:33:2e:f9:57:b5, 2015-01-01 00:09:31.980, 0.515, 0.214, 2.028, -23.01, 225.464, -16.907, , , , , , , 1, 5.74, -104.052,
 13:45:22.025,eb:33:2e:f9:57:b5, 2015-01-01 00:09:31.980, 0.583, 0.266, 2.121, -5.005, 224.548, -31.311, , , , , , , 0.928, 6.861, -104.161,
 13:45:22.025,eb:33:2e:f9:57:b5, 2015-01-01 00:09:31.980, 0.563, 0.291, 1.882, 13.306, 220.825, -45.166, , , , , , , 0.934, 7.982, -104.343,
 13:45:22.025,eb:33:2e:f9:57:b5, 2015-01-01 00:09:31.980, 0.448, 0.396, 1.513, 31.738, 207.825, -56.03, , , , , , , 1.022, 9.053, -104.59,
 13:45:22.025,eb:33:2e:f9:57:b5, 2015-01-01 00:09:31.980, 0.466, 0.402, 1.411, 50.659, 186.707, -70.557, , , , , , , 1.187, 10.036, -104.897,
 13:45:22.025,eb:33:2e:f9:57:b5, 2015-01-01 00:09:31.980, 0.392, 0.295, 1.594, 65.796, 174.622, -83.069, , , , , , , 1.417, 10.937, -105.282,
 13:45:22.316,eb:33:2e:f9:57:b5, 2015-01-01 00:09:31.980, 0.378, 0.193, 1.849, 75.684, 176.27, -87.402, , , , , , , 1.697, 11.821, -105.694,
 13:45:22.316,eb:33:2e:f9:57:b5, 2015-01-01 00:09:31.980, 0.449, 0.054, 1.998, 76.965, 190.247, -93.201, , , , , , , 1.989, 12.761, -106.133,
 13:45:22.316,eb:33:2e:f9:57:b5, 2015-01-01 00:09:31.980, 0.474, -0.025, 1.938, 72.327, 204.224, -92.59, , , , , , , 2.263, 13.771, -106.573,
 13:45:22.316,eb:33:2e:f9:57:b5, 2015-01-01 00:09:31.980, 0.586, -0.043, 1.894, 62.378, 223.755, -90.21, , , , , , , 2.494, 14.865, -107.001,
 13:45:22.316,eb:33:2e:f9:57:b5, 2015-01-01 00:09:31.980, 0.678, -0.055, 1.754, 50.354, 242.92, -87.097, , , , , , , 2.664, 16.062, -107.397,
 13:45:22.316,eb:33:2e:f9:57:b5, 2015-01-01 00:09:31.980, 0.85, -0.031, 1.518, 38.574, 256.592, -89.722, , , , , , , 2.763, 17.336, -107.798,
 13:45:22.316,eb:33:2e:f9:57:b5, 2015-01-01 00:09:31.980, 0.865, -0.06, 1.175, 32.593, 255.92, -88.562, , , , , , , 2.812, 18.644, -108.204,
 13:45:22.317,eb:33:2e:f9:57:b5, 2015-01-01 00:09:31.980, 1.108, 0.019, 1.074, 33.508, 249.084, -90.515, , , , , , , 2.84, 19.924, -108.605,
 13:45:22.443,eb:33:2e:f9:57:b5, 2015-01-01 00:09:31.980, -0.325, -0.185, 0.655, 35.706, 214.233, -110.229, , , , , , , 2.851, 21.127, -109.089,
 13:45:22.443,eb:33:2e:f9:57:b5, 2015-01-01 00:09:31.980, -0.31, -0.172, 1.558, -179.321, -109.314, 37.476, , , , , , , -8.146, -8.311, -100.497,
 13:45:22.443,eb:33:2e:f9:57:b5, 2015-01-01 00:09:31.980, -0.306, -0.126, 1.534, -177.917, -106.506, 40.771, , , , , , , -9.086, -8.817, -100.217,
 13:45:22.443,eb:33:2e:f9:57:b5, 2015-01-01 00:09:31.980, -0.312, -0.09, 1.526, -174.377, -104.614, 44.678, , , , , , , -10.014, -9.3, -99.915,
 13:45:22.443,eb:33:2e:f9:57:b5, 2015-01-01 00:09:31.980, -0.319, -0.06, 1.539, -169.128, -102.966, 48.828, , , , , , , -10.926, -9.767, -99.586,
 13:45:22.443,eb:33:2e:f9:57:b5, 2015-01-01 00:09:31.980, -0.337, -0.031, 1.543, -163.147, -101.196, 54.016, , , , , , , -11.816, -10.217, -99.229,
 13:45:22.443,eb:33:2e:f9:57:b5, 2015-01-01 00:09:31.980, -0.348, -0.007, 1.527, -157.043, -99.365, 59.875, , , , , , , -12.684, -10.646, -98.833,
 13:45:22.443,eb:33:2e:f9:57:b5, 2015-01-01 00:09:31.980, -0.343, 0.013, 1.503, -151.367, -96.558, 66.772, , , , , , , -13.535, -11.047, -98.405,
 13:45:22.444,eb:33:2e:f9:57:b5, 2015-01-01 00:09:31.980, 0.016, 0.04, 1.482, -146.179, -92.712, 74.463, , , , , , , -14.365, -11.42, -97.938,
 13:45:22.444,eb:33:2e:f9:57:b5, 2015-01-01 00:09:31.980, -0.054, 0.164, 0.964, 49.988, 47.241, 29.48, , , , , , , -1.104, -3.878, -93.664,
 13:45:22.444,eb:33:2e:f9:57:b5, 2015-01-01 00:09:31.980, -0.034, 0.125, 0.935, 40.955, 40.588, 28.931, , , , , , , -0.895, -3.658, -93.521,
 13:45:22.444,eb:33:2e:f9:57:b5, 2015-01-01 00:09:31.980, -0.025, 0.082, 0.937, 35.034, 35.522, 28.687, , , , , , , -0.714, -3.466, -93.384,
 13:45:22.444,eb:33:2e:f9:57:b5, 2015-01-01 00:09:31.980, -0.017, 0.057, 0.948, 31.128, 30.457, 29.663, , , , , , , -0.56, -3.301, -93.241,
 13:45:22.444,eb:33:2e:f9:57:b5, 2015-01-01 00:09:31.980, -0.011, 0.061, 0.961, 27.039, 25.085, 29.236, , , , , , , -0.423, -3.164, -93.093,
 13:45:22.444,eb:33:2e:f9:57:b5, 2015-01-01 00:09:31.980, -0.006, 0.071, 0.972, 22.827, 21.851, 27.954, , , , , , , -0.308, -3.049, -92.95,
 13:45:22.444,eb:33:2e:f9:57:b5, 2015-01-01 00:09:31.980, -0.022, 0.078, 0.969, 18.25, 19.165, 26.428, , , , , , , -0.214, -2.944, -92.818,
 13:45:22.473,eb:33:2e:f9:57:b5, 2015-01-01 00:09:31.980, 0.032, 0.067, 0.957, 14.16, 15.93, 25.33, , , , , , , -0.143, -2.856, -92.692,
 13:45:22.473,eb:33:2e:f9:57:b5, 2015-01-01 00:09:31.980, 0.019, 0.041, 0.984, 6.836, 6.836, 0.244, , , , , , , 1.758, -1.73, -91.752,
 13:45:22.473,eb:33:2e:f9:57:b5, 2015-01-01 00:09:31.980, 0.016, 0.029, 0.986, 6.226, 5.981, 1.099, , , , , , , 1.791, -1.697, -91.747,
 13:45:22.473,eb:33:2e:f9:57:b5, 2015-01-01 00:09:31.980, 0.018, 0.038, 0.978, 5.371, 5.798, 1.465, , , , , , , 1.818, -1.67, -91.741,
 13:45:22.473,eb:33:2e:f9:57:b5, 2015-01-01 00:09:31.980, 0.017, 0.039, 0.991, 4.761, 5.676, 1.465, , , , , , , 1.846, -1.637, -91.736,
 13:45:22.473,eb:33:2e:f9:57:b5, 2015-01-01 00:09:31.980, 0.032, 0.048, 0.98, 3.967, 5.493, 1.282, , , , , , , 1.868, -1.609, -91.725,
 13:45:22.473,eb:33:2e:f9:57:b5, 2015-01-01 00:09:31.980, 0.016, 0.05, 0.994, 2.747, 7.812, 2.258, , , , , , , 1.884, -1.571, -91.719,
 13:45:22.473,eb:33:2e:f9:57:b5, 2015-01-01 00:09:31.980, 0, 0.041, 0.986, 2.502, 6.897, 4.15, , , , , , , 1.895, -1.538, -91.703,
 13:45:22.477,eb:33:2e:f9:57:b5, 2015-01-01 00:09:31.980, 0.751, 0.041, 0.983, 2.136, 6.226, 4.395, , , , , , , 1.906, -1.505, -91.681,
 13:45:22.477,eb:33:2e:f9:57:b5, 2015-01-01 00:09:31.980, 0.755, -0.231, 2.91, 394.958, 220.459, -50.903, , , , , , , 31.954, 9.174, -91.225,
 13:45:22.477,eb:33:2e:f9:57:b5, 2015-01-01 00:09:31.980, 0.666, -0.175, 3.224, 419.006, 239.868, -50.781, , , , , , , 34.069, 10.289, -90.797,
 13:45:22.477,eb:33:2e:f9:57:b5, 2015-01-01 00:09:31.980, 0.558, -0.198, 3.349, 439.819, 247.864, -48.767, , , , , , , 36.326, 11.431, -90.286,
 13:45:22.477,eb:33:2e:f9:57:b5, 2015-01-01 00:09:31.980, 0.521, -0.083, 3.387, 460.999, 254.639, -45.837, , , , , , , 38.71, 12.574, -89.687,
 13:45:22.477,eb:33:2e:f9:57:b5, 2015-01-01 00:09:31.980, 0.54, -0.068, 3.511, 475.281, 266.052, -48.95, , , , , , , 41.215, 13.727, -89.017,
 13:45:22.477,eb:33:2e:f9:57:b5, 2015-01-01 00:09:31.980, 0.464, -0.131, 3.285, 494.08, 268.372, -41.87, , , , , , , 43.83, 14.865, -88.253,
 13:45:22.477,eb:33:2e:f9:57:b5, 2015-01-01 00:09:31.980, 0.444, -0.247, 3.307, 505.615, 269.47, -44.983, , , , , , , 46.56, 15.98, -87.418,
 13:45:22.477,eb:33:2e:f9:57:b5, 2015-01-01 00:09:31.980, 0.43, 0.05, 3.016, 518.005, 259.216, -49.927, , , , , , , 49.373, 17.018, -86.561,
 13:45:22.477,eb:33:2e:f9:57:b5, 2015-01-01 00:09:31.980, 0.271, -0.206, 3.175, 518.921, 262.756, -58.167, , , , , , , 52.234, 18.073, -85.688,
 13:45:22.477,eb:33:2e:f9:57:b5, 2015-01-01 00:09:31.980, 0.281, -0.349, 2.976, 520.02, 257.69, -53.711, , , , , , , 55.118, 19.056, -84.76,
 13:45:22.477,eb:33:2e:f9:57:b5, 2015-01-01 00:09:31.980, 0.417, -0.486, 3.284, 516.418, 271.729, -63.171, , , , , , , 58.046, 20.039, -83.76,
 13:45:22.477,eb:33:2e:f9:57:b5, 2015-01-01 00:09:31.980, 0.299, -0.596, 3.356, 517.273, 283.752, -56.152, , , , , , , 61.024, 20.995, -82.634,
 13:45:22.477,eb:33:2e:f9:57:b5, 2015-01-01 00:09:31.980, 0.476, -0.711, 3.105, 514.099, 290.161, -62.073, , , , , , , 64.056, 21.923, -81.403,
 13:45:22.478,eb:33:2e:f9:57:b5, 2015-01-01 00:09:31.980, 0.634, -0.861, 2.283, 490.173, 277.161, -51.208, , , , , , , 67.044, 22.775, -80.134,
 13:45:22.478,eb:33:2e:f9:57:b5, 2015-01-01 00:09:31.980, 0.821, -0.396, 1.694, 449.951, 256.592, -52.612, , , , , , , 69.862, 23.489, -78.904,
 13:45:22.495,eb:33:2e:f9:57:b5, 2015-01-01 00:09:31.980, 0.993, -0.447, 1.379, 396.362, 249.756, -64.026, , , , , , , 72.444, 24.181, -77.706,
 13:45:22.495,eb:33:2e:f9:57:b5, 2015-01-01 00:09:31.980, 1.01, -1.233, 1.137, 335.327, 229.614, -61.401, , , , , , , 74.729, 24.824, -76.531,
 13:45:22.495,eb:33:2e:f9:57:b5, 2015-01-01 00:09:31.980, 1.143, -2.085, 0.003, 268.982, 211.67, -30.945, , , , , , , 76.657, 25.302, -75.443,
 13:45:22.495,eb:33:2e:f9:57:b5, 2015-01-01 00:09:31.980, 1.124, -1.888, -0.417, 223.083, 222.29, -19.775, , , , , , , 78.338, 25.659, -74.301,
 13:45:22.495,eb:33:2e:f9:57:b5, 2015-01-01 00:09:31.980, 0.703, -1.456, -0.189, 218.018, 211.365, -10.376, , , , , , , 79.953, 25.922, -73.114,
 13:45:22.495,eb:33:2e:f9:57:b5, 2015-01-01 00:09:31.980, 0.366, -0.485, -0.602, 179.504, 141.541, -36.438, , , , , , , 81.37, 26.191, -72.169,
 13:45:22.495,eb:33:2e:f9:57:b5, 2015-01-01 00:09:31.980, 0.361, 0.186, -1.588, 93.506, 84.229, -38.391, , , , , , , 82.233, 26.455, -71.653,
 13:45:22.495,eb:33:2e:f9:57:b5, 2015-01-01 00:09:31.980, 0.572, -0.026, -1.089, 15.259, 28.625, -41.687, , , , , , , 82.573, 26.68, -71.395,
 13:45:22.541,eb:33:2e:f9:57:b5, 2015-01-01 00:09:31.980, 0.724, -0.265, -0.613, -53.528, -17.639, -53.406, , , , , , , 82.425, 26.927, -71.433,
 13:45:22.541,eb:33:2e:f9:57:b5, 2015-01-01 00:09:31.980, 0.604, -0.609, -0.364, -122.314, -35.706, -49.561, , , , , , , 81.854, 27.169, -71.642,
 13:45:22.541,eb:33:2e:f9:57:b5, 2015-01-01 00:09:31.980, 0.516, -0.879, -0.127, -182.19, -36.926, -43.945, , , , , , , 80.936, 27.367, -71.889,
 13:45:22.541,eb:33:2e:f9:57:b5, 2015-01-01 00:09:31.980, 0.532, -0.932, 0.227, -226.99, -32.288, -42.969, , , , , , , 79.777, 27.554, -72.125,
 13:45:22.541,eb:33:2e:f9:57:b5, 2015-01-01 00:09:31.980, 0.53, -0.87, 0.604, -257.446, -20.874, -42.969, , , , , , , 78.459, 27.74, -72.312,
 13:45:22.541,eb:33:2e:f9:57:b5, 2015-01-01 00:09:31.980, 0.478, -0.826, 0.829, -275.269, -12.024, -43.213, , , , , , , 77.053, 27.933, -72.444,
 13:45:22.541,eb:33:2e:f9:57:b5, 2015-01-01 00:09:31.980, 0.503, -0.787, 0.882, -283.386, -8.301, -46.57, , , , , , , 75.58, 28.141, -72.565,
 13:45:22.541,eb:33:2e:f9:57:b5, 2015-01-01 00:09:31.980, 0.587, -0.753, 0.839, -285.156, -7.141, -50.903, , , , , , , 74.103, 28.372, -72.68,
 13:45:22.586,eb:33:2e:f9:57:b5, 2015-01-01 00:09:31.980, 0.643, -0.718, 0.714, -283.447, -8.362, -54.993, , , , , , , 72.62, 28.614, -72.806,
 13:45:22.586,eb:33:2e:f9:57:b5, 2015-01-01 00:09:31.980, 0.672, -0.69, 0.517, -280.457, -13.245, -60.059, , , , , , , 71.131, 28.872, -72.971,
 13:45:22.586,eb:33:2e:f9:57:b5, 2015-01-01 00:09:31.980, 0.67, -0.681, 0.307, -277.283, -22.583, -63.904, , , , , , , 69.62, 29.136, -73.196,
 13:45:22.586,eb:33:2e:f9:57:b5, 2015-01-01 00:09:31.980, 0.652, -0.67, 0.129, -275.146, -37.231, -66.284, , , , , , , 68.093, 29.388, -73.499,
 13:45:22.586,eb:33:2e:f9:57:b5, 2015-01-01 00:09:31.980, 0.626, -0.654, 0.024, -274.414, -55.908, -68.359, , , , , , , 66.522, 29.608, -73.9,
 13:45:22.586,eb:33:2e:f9:57:b5, 2015-01-01 00:09:31.980, 0.587, -0.653, -0.012, -275.635, -76.599, -68.237, , , , , , , 64.885, 29.778, -74.421,
 13:45:22.586,eb:33:2e:f9:57:b5, 2015-01-01 00:09:31.980, 0.556, -0.663, 0.005, -279.48, -96.191, -66.345, , , , , , , 63.171, 29.888, -75.059,
 13:45:22.587,eb:33:2e:f9:57:b5, 2015-01-01 00:09:31.980, 0.511, -0.687, 0.052, -286.499, -113.708, -62.439, , , , , , , 61.397, 29.921, -75.778,
 13:45:22.654,eb:33:2e:f9:57:b5, 2015-01-01 00:09:31.980, 0.459, -0.726, 0.105, -296.692, -129.028, -55.786, , , , , , , 59.546, 29.877, -76.558,
 13:45:22.654,eb:33:2e:f9:57:b5, 2015-01-01 00:09:31.980, 0.41, -0.777, 0.175, -309.021, -142.395, -47.119, , , , , , , 57.612, 29.734, -77.388,
 13:45:22.654,eb:33:2e:f9:57:b5, 2015-01-01 00:09:31.980, 0.368, -0.825, 0.251, -322.998, -152.893, -36.499, , , , , , , 55.596, 29.493, -78.239,
 13:45:22.654,eb:33:2e:f9:57:b5, 2015-01-01 00:09:31.980, 0.35, -0.851, 0.322, -337.952, -161.926, -24.719, , , , , , , 53.525, 29.158, -79.08,
 13:45:22.654,eb:33:2e:f9:57:b5, 2015-01-01 00:09:31.980, 0.336, -0.865, 0.405, -352.844, -169.617, -11.169, , , , , , , 51.394, 28.713, -79.893,
 13:45:22.654,eb:33:2e:f9:57:b5, 2015-01-01 00:09:31.980, 0.337, -0.853, 0.512, -367.31, -175.964, 0.854, , , , , , , 49.219, 28.174, -80.662,
 13:45:22.654,eb:33:2e:f9:57:b5, 2015-01-01 00:09:31.980, 0.345, -0.841, 0.623, -380.188, -181.396, 13.184, , , , , , , 46.989, 27.543, -81.398,
 13:45:22.654,eb:33:2e:f9:57:b5, 2015-01-01 00:09:31.980, 0.358, -0.826, 0.735, -391.052, -185.608, 25.757, , , , , , , 44.753, 26.829, -82.057,
 13:45:22.722,eb:33:2e:f9:57:b5, 2015-01-01 00:09:31.980, 0.367, -0.8, 0.848, -399.597, -188.354, 36.926, , , , , , , 42.506, 26.038, -82.645,
 13:45:22.722,eb:33:2e:f9:57:b5, 2015-01-01 00:09:31.980, 0.382, -0.76, 0.975, -406.738, -191.589, 46.997, , , , , , , 40.265, 25.186, -83.167,
 13:45:22.722,eb:33:2e:f9:57:b5, 2015-01-01 00:09:31.980, 0.393, -0.705, 1.064, -410.583, -194.763, 53.955, , , , , , , 38.013, 24.269, -83.628,
 13:45:22.722,eb:33:2e:f9:57:b5, 2015-01-01 00:09:31.980, 0.418, -0.594, 1.105, -413.574, -197.266, 59.265, , , , , , , 35.793, 23.307, -84.023,
 13:45:22.722,eb:33:2e:f9:57:b5, 2015-01-01 00:09:31.980, 0.453, -0.446, 1.161, -415.161, -199.097, 60.791, , , , , , , 33.585, 22.324, -84.364,
 13:45:22.722,eb:33:2e:f9:57:b5, 2015-01-01 00:09:31.980, 0.474, -0.301, 1.241, -414.856, -201.172, 58.533, , , , , , , 31.393, 21.319, -84.672,
 13:45:22.722,eb:33:2e:f9:57:b5, 2015-01-01 00:09:31.980, 0.47, -0.154, 1.313, -412.231, -204.041, 52.49, , , , , , , 29.207, 20.297, -84.974,
 13:45:22.722,eb:33:2e:f9:57:b5, 2015-01-01 00:09:31.980, 0.47, -0.028, 1.395, -406.677, -208.252, 41.992, , , , , , , 27.059, 19.276, -85.27,
 13:45:22.765,eb:33:2e:f9:57:b5, 2015-01-01 00:09:31.980, 0.466, 0.073, 1.498, -399.597, -212.402, 28.625, , , , , , , 24.944, 18.254, -85.6,
 13:45:22.765,eb:33:2e:f9:57:b5, 2015-01-01 00:09:31.980, 0.434, 0.141, 1.613, -391.418, -213.074, 13.489, , , , , , , 22.863, 17.243, -85.957,
 13:45:22.765,eb:33:2e:f9:57:b5, 2015-01-01 00:09:31.980, 0.377, 0.155, 1.722, -383.545, -217.59, 0.916, , , , , , , 20.797, 16.227, -86.358,
 13:45:22.765,eb:33:2e:f9:57:b5, 2015-01-01 00:09:31.980, 0.315, 0.131, 1.796, -376.587, -219.971, -9.399, , , , , , , 18.792, 15.205, -86.77,
 13:45:22.765,eb:33:2e:f9:57:b5, 2015-01-01 00:09:31.980, 0.265, 0.096, 1.853, -371.155, -222.534, -18.677, , , , , , , 16.815, 14.172, -87.198,
 13:45:22.765,eb:33:2e:f9:57:b5, 2015-01-01 00:09:31.980, 0.216, 0.059, 1.889, -367.493, -224.854, -26.489, , , , , , , 14.87, 13.129, -87.627,
 13:45:22.765,eb:33:2e:f9:57:b5, 2015-01-01 00:09:31.980, 0.186, 0.024, 1.905, -365.784, -227.966, -34.241, , , , , , , 12.925, 12.057, -88.066,
 13:45:22.766,eb:33:2e:f9:57:b5, 2015-01-01 00:09:31.980, 0.156, -0.032, 1.915, -365.967, -232.666, -39.551, , , , , , , 11.014, 10.97, -88.5,
 13:45:22.811,eb:33:2e:f9:57:b5, 2015-01-01 00:09:31.980, 0.13, -0.1, 1.922, -367.859, -239.441, -42.786, , , , , , , 9.102, 9.838, -88.923,
 13:45:22.811,eb:33:2e:f9:57:b5, 2015-01-01 00:09:31.980, 0.097, -0.175, 1.951, -371.033, -246.582, -44.495, , , , , , , 7.191, 8.663, -89.319,
 13:45:22.811,eb:33:2e:f9:57:b5, 2015-01-01 00:09:31.980, 0.062, -0.254, 1.991, -375, -254.395, -43.701, , , , , , , 5.257, 7.432, -89.681,
 13:45:22.811,eb:33:2e:f9:57:b5, 2015-01-01 00:09:31.980, 0.035, -0.325, 2.064, -379.333, -263.611, -40.527, , , , , , , 3.329, 6.152, -89.989,
 13:45:22.811,eb:33:2e:f9:57:b5, 2015-01-01 00:09:31.980, 0.037, -0.391, 2.209, -383.362, -274.17, -36.316, , , , , , , 1.401, 4.812, -90.242,
 13:45:22.811,eb:33:2e:f9:57:b5, 2015-01-01 00:09:31.980, 0.022, -0.438, 2.391, -386.353, -282.593, -27.039, , , , , , , -0.533, 3.417, -90.406,
 13:45:22.811,eb:33:2e:f9:57:b5, 2015-01-01 00:09:31.980, 0.016, -0.42, 2.623, -388.916, -286.194, -16.968, , , , , , , -2.494, 1.978, -90.478,
 13:45:22.811,eb:33:2e:f9:57:b5, 2015-01-01 00:09:31.980, 0.011, -0.343, 2.834, -390.015, -287.72, -5.981, , , , , , , -4.438, 0.538, -90.445,
 13:45:22.813,eb:33:2e:f9:57:b5, 2015-01-01 00:09:31.980, 0.028, -0.173, 3.021, -390.198, -285.645, 2.197, , , , , , , -6.394, -0.879, -90.313,
 13:45:22.814,eb:33:2e:f9:57:b5, 2015-01-01 00:09:31.980, 0.067, 0.082, 3.163, -388.855, -281.738, 6.165, , , , , , , -8.344, -2.28, -90.11,
 13:45:22.814,eb:33:2e:f9:57:b5, 2015-01-01 00:09:31.980, 0.108, 0.38, 3.258, -385.559, -278.503, 5.676, , , , , , , -10.311, -3.669, -89.852,
 13:45:22.814,eb:33:2e:f9:57:b5, 2015-01-01 00:09:31.980, 0.14, 0.713, 3.301, -380.249, -276.794, 0.244, , , , , , , -12.244, -5.026, -89.566,
 13:45:22.814,eb:33:2e:f9:57:b5, 2015-01-01 00:09:31.980, 0.131, 1.034, 3.304, -372.62, -279.114, -8.362, , , , , , , -14.15, -6.383, -89.275,
 13:45:22.814,eb:33:2e:f9:57:b5, 2015-01-01 00:09:31.980, 0.069, 1.327, 3.297, -362.305, -283.264, -19.531, , , , , , , -16.024, -7.762, -88.978,
 13:45:22.814,eb:33:2e:f9:57:b5, 2015-01-01 00:09:31.980, -0.093, 1.537, 3.283, -348.633, -291.199, -30.457, , , , , , , -17.853, -9.185, -88.682,
 13:45:22.814,eb:33:2e:f9:57:b5, 2015-01-01 00:09:31.980, -0.348, 1.641, 3.246, -331.665, -301.27, -40.527, , , , , , , -19.6, -10.651, -88.374,
 13:45:22.992,eb:33:2e:f9:57:b5, 2015-01-01 00:09:31.980, -0.54, 1.551, 3.201, -310.486, -311.34, -48.645, , , , , , , -21.259, -12.173, -88.05,
 13:45:22.992,eb:33:2e:f9:57:b5, 2015-01-01 00:09:31.980, -0.764, 1.401, 3.264, -286.865, -310.73, -50.537, , , , , , , -22.824, -13.711, -87.687,
 13:45:22.992,eb:33:2e:f9:57:b5, 2015-01-01 00:09:31.980, -1.165, 1.4, 3.244, -262.512, -301.575, -45.227, , , , , , , -24.302, -15.216, -87.281,
 13:45:22.992,eb:33:2e:f9:57:b5, 2015-01-01 00:09:31.980, -1.511, 1.585, 3.019, -236.816, -297.913, -35.522, , , , , , , -25.664, -16.655, -86.814,
 13:45:22.992,eb:33:2e:f9:57:b5, 2015-01-01 00:09:31.980, -1.698, 2, 2.957, -205.994, -290.833, -25.452, , , , , , , -26.917, -18.04, -86.276,
 13:45:22.992,eb:33:2e:f9:57:b5, 2015-01-01 00:09:31.980, -1.957, 2.452, 3.046, -180.237, -274.658, -16.113, , , , , , , -28.059, -19.336, -85.682,
 13:45:22.992,eb:33:2e:f9:57:b5, 2015-01-01 00:09:31.980, -2.24, 2.875, 3.047, -155.151, -248.047, -7.019, , , , , , , -29.108, -20.506, -85.067,
 13:45:22.992,eb:33:2e:f9:57:b5, 2015-01-01 00:09:31.980, -2.48, 3.218, 2.916, -129.639, -215.21, 2.869, , , , , , , -30.02, -21.506, -84.468,
 13:45:22.992,eb:33:2e:f9:57:b5, 2015-01-01 00:09:31.980, -2.642, 3.528, 2.729, -102.112, -179.504, 13.245, , , , , , , -30.8, -22.319, -83.903,
 13:45:22.993,eb:33:2e:f9:57:b5, 2015-01-01 00:09:31.980, -2.679, 3.836, 2.6, -71.472, -146.545, 21.545, , , , , , , -31.421, -22.95, -83.37,
 13:45:22.993,eb:33:2e:f9:57:b5, 2015-01-01 00:09:31.980, -2.621, 4.085, 2.654, -38.025, -113.159, 24.414, , , , , , , -31.871, -23.434, -82.897,
 13:45:22.993,eb:33:2e:f9:57:b5, 2015-01-01 00:09:31.980, -2.505, 4.147, 2.833, -2.686, -75.073, 23.743, , , , , , , -32.108, -23.752, -82.524,
