Time,Device name,Chip Time(),Acceleration X(g),Acceleration Y(g),Acceleration Z(g),Angular velocity X(°/s),Angular velocity Y(°/s),Angular velocity Z(°/s),ShiftX(mm),ShiftY(mm),ShiftZ(mm),SpeedX(mm/s),SpeedY(mm/s),SpeedZ(mm/s),Angle X(°),Angle Y(°),Angle Z(°)
 09:31:34.544,eb:33:2e:f9:57:b5, 2015-01-01 00:20:10.935, -0.02, -0.017, 1.007, 1.465, 2.441, 0.305, , , , , , , -0.39, 1.681, -104.952,
 09:31:34.545,eb:33:2e:f9:57:b5, 2015-01-01 00:20:10.935, -0.023, -0.013, 0.998, 1.526, 2.441, 0.366, , , , , , , -0.385, 1.692, -104.947,
 09:31:34.545,eb:33:2e:f9:57:b5, 2015-01-01 00:20:10.935, -0.018, -0.011, 0.993, 1.526, 2.197, 0.488, , , , , , , -0.374, 1.703, -104.947,
 09:31:34.545,eb:33:2e:f9:57:b5, 2015-01-01 00:20:10.935, -0.018, -0.009, 0.995, 1.465, 2.075, 0.366, , , , , , , -0.368, 1.714, -104.941,
 09:31:34.545,eb:33:2e:f9:57:b5, 2015-01-01 00:20:10.935, -0.014, -0.009, 0.995, 1.404, 2.014, 0.366, , , , , , , -0.363, 1.725, -104.941,
 09:31:34.545,eb:33:2e:f9:57:b5, 2015-01-01 00:20:10.935, -0.012, -0.008, 0.997, 1.282, 2.136, 0.427, , , , , , , -0.357, 1.736, -104.941,
 09:31:34.545,eb:33:2e:f9:57:b5, 2015-01-01 00:20:10.935, -0.014, -0.007, 0.997, 1.16, 2.441, 0.366, , , , , , , -0.352, 1.747, -104.936,
 09:31:34.545,eb:33:2e:f9:57:b5, 2015-01-01 00:20:10.935, -0.015, -0.006, 0.993, 1.038, 2.563, 0.305, , , , , , , -0.346, 1.763, -104.936,
 09:31:34.548,eb:33:2e:f9:57:b5, 2015-01-01 00:20:10.935, -0.015, -0.007, 0.994, 0.916, 2.625, 0.244, , , , , , , -0.341, 1.774, -104.936,
 09:31:34.548,eb:33:2e:f9:57:b5, 2015-01-01 00:20:10.935, -0.017, -0.009, 0.997, 0.916, 2.747, 0.244, , , , , , , -0.335, 1.785, -104.936,
 09:31:34.548,eb:33:2e:f9:57:b5, 2015-01-01 00:20:10.935, -0.022, -0.008, 0.995, 0.916, 2.808, 0.122, , , , , , , -0.33, 1.802, -104.93,
 09:31:34.548,eb:33:2e:f9:57:b5, 2015-01-01 00:20:10.935, -0.022, -0.008, 0.993, 0.854, 2.686, 0.061, , , , , , , -0.33, 1.818, -104.93,
 09:31:34.548,eb:33:2e:f9:57:b5, 2015-01-01 00:20:10.935, -0.024, -0.008, 0.992, 0.793, 2.563, 0, , , , , , , -0.324, 1.829, -104.93,
 09:31:34.548,eb:33:2e:f9:57:b5, 2015-01-01 00:20:10.935, -0.022, -0.01, 0.991, 0.732, 2.258, 0, , , , , , , -0.319, 1.84, -104.93,
 09:31:34.548,eb:33:2e:f9:57:b5, 2015-01-01 00:20:10.935, -0.024, -0.011, 0.992, 0.671, 2.136, 0, , , , , , , -0.319, 1.851, -104.936,
 09:31:34.549,eb:33:2e:f9:57:b5, 2015-01-01 00:20:10.935, -0.021, -0.013, 0.991, 0.671, 2.014, 0, , , , , , , -0.313, 1.862, -104.936,
 09:31:34.549,eb:33:2e:f9:57:b5, 2015-01-01 00:20:10.935, -0.021, -0.011, 0.994, 0.732, 1.953, 0.061, , , , , , , -0.313, 1.873, -104.936,
 09:31:34.549,eb:33:2e:f9:57:b5, 2015-01-01 00:20:10.935, -0.025, -0.013, 0.995, 0.854, 1.953, 0, , , , , , , -0.308, 1.884, -104.936,
 09:31:34.549,eb:33:2e:f9:57:b5, 2015-01-01 00:20:10.935, -0.024, -0.014, 0.991, 1.038, 1.77, 0.122, , , , , , , -0.302, 1.89, -104.93,
 09:31:34.549,eb:33:2e:f9:57:b5, 2015-01-01 00:20:10.935, -0.027, -0.005, 0.984, 0.916, 1.648, 0, , , , , , , -0.297, 1.901, -104.93,
 09:31:34.549,eb:33:2e:f9:57:b5, 2015-01-01 00:20:10.935, -0.03, -0.002, 0.98, 0.61, 1.404, -0.061, , , , , , , -0.297, 1.906, -104.936,
 09:31:34.549,eb:33:2e:f9:57:b5, 2015-01-01 00:20:10.935, -0.031, -0.003, 0.979, 0.244, 1.099, -0.061, , , , , , , -0.291, 1.917, -104.936,
 09:31:34.549,eb:33:2e:f9:57:b5, 2015-01-01 00:20:10.935, -0.026, -0.004, 0.979, 0, 0.671, 0, , , , , , , -0.297, 1.917, -104.936,
 09:31:34.549,eb:33:2e:f9:57:b5, 2015-01-01 00:20:10.935, -0.022, -0.005, 0.985, -0.244, 0.488, 0, , , , , , , -0.297, 1.923, -104.936,
 09:31:34.553,eb:33:2e:f9:57:b5, 2015-01-01 00:20:10.935, 0, -0.006, 0.988, -0.427, 0.671, 0, , , , , , , -0.297, 1.923, -104.936,
 09:31:34.553,eb:33:2e:f9:57:b5, 2015-01-01 00:20:10.935, 0.012, -0.058, 1.014, -13.672, -17.578, -4.333, , , , , , , -2.098, 0.599, -104.93,
 09:31:34.553,eb:33:2e:f9:57:b5, 2015-01-01 00:20:10.935, 0.026, -0.054, 1.023, -12.878, -16.846, -4.578, , , , , , , -2.17, 0.511, -104.952,
 09:31:34.553,eb:33:2e:f9:57:b5, 2015-01-01 00:20:10.935, 0.022, -0.049, 1.029, -12.146, -15.381, -5.005, , , , , , , -2.23, 0.428, -104.974,
 09:31:34.553,eb:33:2e:f9:57:b5, 2015-01-01 00:20:10.935, 0.007, -0.05, 1.015, -11.658, -14.282, -5.432, , , , , , , -2.291, 0.357, -104.996,
 09:31:34.553,eb:33:2e:f9:57:b5, 2015-01-01 00:20:10.935, -0.006, -0.046, 1.001, -11.475, -14.099, -5.676, , , , , , , -2.346, 0.286, -105.024,
 09:31:34.553,eb:33:2e:f9:57:b5, 2015-01-01 00:20:10.935, -0.003, -0.042, 0.991, -11.475, -14.832, -5.859, , , , , , , -2.406, 0.209, -105.046,
 09:31:34.553,eb:33:2e:f9:57:b5, 2015-01-01 00:20:10.935, 0.004, -0.054, 0.991, -11.292, -15.32, -5.737, , , , , , , -2.466, 0.132, -105.073,
 09:31:34.553,eb:33:2e:f9:57:b5, 2015-01-01 00:20:10.935, 0.019, -0.046, 0.997, -11.475, -15.808, -5.615, , , , , , , -2.521, 0.055, -105.095,
 09:31:34.553,eb:33:2e:f9:57:b5, 2015-01-01 00:20:10.935, 0.016, -0.047, 1.006, -11.475, -15.198, -5.676, , , , , , , -2.582, -0.022, -105.123,
 09:31:34.553,eb:33:2e:f9:57:b5, 2015-01-01 00:20:10.935, 0.006, -0.043, 1.001, -11.658, -15.076, -5.92, , , , , , , -2.637, -0.099, -105.15,
 09:31:34.553,eb:33:2e:f9:57:b5, 2015-01-01 00:20:10.935, 0.002, -0.045, 0.994, -11.841, -15.625, -6.226, , , , , , , -2.697, -0.176, -105.178,
 09:31:34.553,eb:33:2e:f9:57:b5, 2015-01-01 00:20:10.935, 0.011, -0.05, 0.989, -11.963, -16.541, -6.531, , , , , , , -2.758, -0.258, -105.205,
 09:31:34.553,eb:33:2e:f9:57:b5, 2015-01-01 00:20:10.935, 0.028, -0.056, 0.987, -11.902, -17.273, -6.409, , , , , , , -2.818, -0.346, -105.233,
 09:31:34.553,eb:33:2e:f9:57:b5, 2015-01-01 00:20:10.935, 0.033, -0.057, 1, -11.963, -16.907, -6.226, , , , , , , -2.878, -0.428, -105.26,
 09:31:34.553,eb:33:2e:f9:57:b5, 2015-01-01 00:20:10.935, 0.039, -0.061, 1.002, -11.658, -15.869, -5.92, , , , , , , -2.939, -0.516, -105.287,
 09:31:34.566,eb:33:2e:f9:57:b5, 2015-01-01 00:20:10.935, 0.073, -0.07, 1, -10.986, -14.648, -5.859, , , , , , , -2.994, -0.593, -105.309,
 09:31:34.566,eb:33:2e:f9:57:b5, 2015-01-01 00:20:10.935, 0.086, -0.095, 1.017, 9.46, -2.502, -2.808, , , , , , , -3.51, -2.505, -106.007,
 09:31:34.566,eb:33:2e:f9:57:b5, 2015-01-01 00:20:10.935, 0.089, -0.096, 1.026, 10.376, -0.61, -2.38, , , , , , , -3.461, -2.51, -106.024,
 09:31:34.566,eb:33:2e:f9:57:b5, 2015-01-01 00:20:10.935, 0.089, -0.094, 1.028, 11.169, 1.343, -1.892, , , , , , , -3.406, -2.51, -106.035,
 09:31:34.566,eb:33:2e:f9:57:b5, 2015-01-01 00:20:10.935, 0.086, -0.09, 1.026, 11.841, 3.418, -1.038, , , , , , , -3.345, -2.494, -106.04,
 09:31:34.566,eb:33:2e:f9:57:b5, 2015-01-01 00:20:10.935, 0.082, -0.081, 1.022, 12.329, 5.31, -0.305, , , , , , , -3.285, -2.472, -106.046,
 09:31:34.566,eb:33:2e:f9:57:b5, 2015-01-01 00:20:10.935, 0.08, -0.072, 1.021, 12.634, 7.019, 0.305, , , , , , , -3.224, -2.439, -106.046,
 09:31:34.566,eb:33:2e:f9:57:b5, 2015-01-01 00:20:10.935, 0.076, -0.066, 1.019, 12.756, 8.545, 0.793, , , , , , , -3.159, -2.401, -106.046,
 09:31:34.746,eb:33:2e:f9:57:b5, 2015-01-01 00:20:10.935, 0.074, -0.06, 1.016, 12.634, 9.827, 1.221, , , , , , , -3.098, -2.357, -106.04,
 09:31:34.746,eb:33:2e:f9:57:b5, 2015-01-01 00:20:10.935, 0.068, -0.058, 1.012, 12.512, 10.986, 1.587, , , , , , , -3.038, -2.302, -106.04,
 09:31:34.746,eb:33:2e:f9:57:b5, 2015-01-01 00:20:10.935, 0.056, -0.052, 1.003, 12.085, 11.719, 2.014, , , , , , , -2.977, -2.241, -106.029,
 09:31:34.746,eb:33:2e:f9:57:b5, 2015-01-01 00:20:10.935, 0.045, -0.042, 0.994, 11.292, 12.024, 2.441, , , , , , , -2.917, -2.181, -106.024,
 09:31:34.746,eb:33:2e:f9:57:b5, 2015-01-01 00:20:10.935, 0.036, -0.036, 0.988, 10.193, 11.78, 2.93, , , , , , , -2.867, -2.126, -106.013,
 09:31:34.746,eb:33:2e:f9:57:b5, 2015-01-01 00:20:10.935, 0.034, -0.035, 0.986, 9.277, 11.353, 3.113, , , , , , , -2.818, -2.065, -106.002,
 09:31:34.746,eb:33:2e:f9:57:b5, 2015-01-01 00:20:10.935, 0.037, -0.04, 0.985, 8.789, 10.803, 3.235, , , , , , , -2.774, -2.01, -105.985,
 09:31:34.746,eb:33:2e:f9:57:b5, 2015-01-01 00:20:10.935, 0.039, -0.05, 0.989, 8.667, 10.681, 3.235, , , , , , , -2.73, -1.956, -105.974,
 09:31:34.749,eb:33:2e:f9:57:b5, 2015-01-01 00:20:10.935, 0.046, -0.058, 0.994, 8.85, 10.742, 3.296, , , , , , , -2.692, -1.901, -105.958,
 09:31:34.749,eb:33:2e:f9:57:b5, 2015-01-01 00:20:10.935, 0.051, -0.06, 1.002, 9.155, 11.108, 3.357, , , , , , , -2.642, -1.846, -105.947,
 09:31:34.749,eb:33:2e:f9:57:b5, 2015-01-01 00:20:10.935, 0.054, -0.062, 1.009, 9.705, 11.719, 3.479, , , , , , , -2.598, -1.785, -105.93,
 09:31:34.749,eb:33:2e:f9:57:b5, 2015-01-01 00:20:10.935, 0.062, -0.068, 1.018, 10.376, 12.573, 3.723, , , , , , , -2.549, -1.725, -105.914,
 09:31:34.749,eb:33:2e:f9:57:b5, 2015-01-01 00:20:10.935, 0.067, -0.07, 1.023, 11.292, 13.794, 3.845, , , , , , , -2.494, -1.659, -105.897,
 09:31:34.749,eb:33:2e:f9:57:b5, 2015-01-01 00:20:14.175, 0.083, -0.085, 1.039, 12.817, 15.198, 4.333, , , , , , , -2.433, -1.582, -105.881,
 09:31:34.749,eb:33:2e:f9:57:b5, 2015-01-01 00:20:14.175, 0.077, -0.089, 1.043, 14.465, 15.137, 6.714, , , , , , , -2.368, -1.505, -105.859,
 09:31:34.749,eb:33:2e:f9:57:b5, 2015-01-01 00:20:14.175, 0.081, -0.083, 1.054, 16.296, 18.677, 6.409, , , , , , , -2.291, -1.412, -105.831,
 09:31:34.749,eb:33:2e:f9:57:b5, 2015-01-01 00:20:14.175, 0.077, -0.084, 1.057, 18.555, 21.851, 6.714, , , , , , , -2.203, -1.313, -105.798,
 09:31:34.750,eb:33:2e:f9:57:b5, 2015-01-01 00:20:14.175, 0.072, -0.074, 1.062, 20.325, 24.231, 7.507, , , , , , , -2.109, -1.192, -105.771,
 09:31:34.750,eb:33:2e:f9:57:b5, 2015-01-01 00:20:14.175, 0.058, -0.068, 1.058, 22.278, 25.146, 7.751, , , , , , , -2, -1.066, -105.732,
 09:31:34.750,eb:33:2e:f9:57:b5, 2015-01-01 00:20:14.175, 0.076, -0.079, 1.068, 24.78, 25.94, 7.812, , , , , , , -1.884, -0.939, -105.699,
 09:31:34.750,eb:33:2e:f9:57:b5, 2015-01-01 00:20:14.175, 0.056, -0.09, 1.1, 28.931, 26.245, 7.507, , , , , , , -1.747, -0.807, -105.667,
 09:31:34.750,eb:33:2e:f9:57:b5, 2015-01-01 00:20:14.175, 0.074, -0.131, 1.124, 34.607, 26.123, 9.766, , , , , , , -1.588, -0.676, -105.628,
 09:31:34.750,eb:33:2e:f9:57:b5, 2015-01-01 00:20:14.175, 0.084, -0.132, 1.139, 41.138, 26.428, 13.123, , , , , , , -1.395, -0.538, -105.573,
 09:31:34.750,eb:33:2e:f9:57:b5, 2015-01-01 00:20:14.175, 0.125, -0.15, 1.219, 50.415, 28.381, 17.395, , , , , , , -1.165, -0.401, -105.496,
 09:31:34.767,eb:33:2e:f9:57:b5, 2015-01-01 00:20:14.175, 0.087, -0.071, 1.224, 62.5, 26.062, 19.409, , , , , , , -0.879, -0.264, -105.403,
 09:31:34.767,eb:33:2e:f9:57:b5, 2015-01-01 00:20:14.175, 0.027, -0.134, 1.348, 78.857, 19.836, 20.386, , , , , , , -0.522, -0.148, -105.304,
 09:31:34.767,eb:33:2e:f9:57:b5, 2015-01-01 00:20:14.175, 0.103, -0.21, 1.658, 102.783, 13.428, 16.174, , , , , , , -0.055, -0.066, -105.211,
 09:31:34.767,eb:33:2e:f9:57:b5, 2015-01-01 00:20:14.175, 0.052, -0.425, 2.138, 123.047, 19.226, 12.207, , , , , , , 0.516, 0.005, -105.145,
 09:31:34.767,eb:33:2e:f9:57:b5, 2015-01-01 00:20:14.175, 0.012, -0.532, 2.3, 134.216, 38.086, 12.878, , , , , , , 1.165, 0.154, -105.079,
 09:31:34.767,eb:33:2e:f9:57:b5, 2015-01-01 00:20:14.175, 0.084, -0.448, 2.402, 148.682, 55.359, 13.367, , , , , , , 1.879, 0.396, -105.007,
 09:31:34.767,eb:33:2e:f9:57:b5, 2015-01-01 00:20:14.175, 0.189, -0.519, 2.131, 161.804, 59.265, 14.038, , , , , , , 2.664, 0.687, -104.919,
 09:31:34.767,eb:33:2e:f9:57:b5, 2015-01-01 00:20:14.175, 0.189, -0.369, 1.974, 179.26, 54.688, 11.169, , , , , , , 3.527, 0.972, -104.843,
 09:31:34.769,eb:33:2e:f9:57:b5, 2015-01-01 00:20:14.175, 0.107, -0.4, 2.126, 196.289, 56.152, 9.033, , , , , , , 4.471, 1.236, -104.777,
 09:31:34.769,eb:33:2e:f9:57:b5, 2015-01-01 00:20:14.175, 0.074, -0.492, 2.237, 209.778, 62.378, 10.742, , , , , , , 5.499, 1.533, -104.7,
 09:31:34.769,eb:33:2e:f9:57:b5, 2015-01-01 00:20:14.175, 0.045, -0.545, 2.379, 222.412, 76.599, 14.954, , , , , , , 6.586, 1.873, -104.601,
 09:31:34.769,eb:33:2e:f9:57:b5, 2015-01-01 00:20:14.175, 0.119, -0.562, 2.407, 234.619, 88.379, 19.47, , , , , , , 7.745, 2.28, -104.458,
 09:31:34.769,eb:33:2e:f9:57:b5, 2015-01-01 00:20:14.175, 0.135, -0.519, 2.381, 241.333, 100.281, 21.851, , , , , , , 8.943, 2.736, -104.282,
 09:31:34.769,eb:33:2e:f9:57:b5, 2015-01-01 00:20:14.175, 0.168, -0.664, 2.351, 249.207, 110.962, 25.208, , , , , , , 10.184, 3.241, -104.079,
 09:31:34.769,eb:33:2e:f9:57:b5, 2015-01-01 00:20:14.175, 0.233, -0.548, 2.345, 251.404, 119.263, 25.94, , , , , , , 11.453, 3.79, -103.843,
 09:31:34.769,eb:33:2e:f9:57:b5, 2015-01-01 00:20:14.175, 0.314, -0.877, 2.256, 247.253, 130.981, 30.151, , , , , , , 12.722, 4.378, -103.568,
 09:31:34.813,eb:33:2e:f9:57:b5, 2015-01-01 00:20:14.175, 0.517, -1.38, 1.717, 236.572, 128.784, 37.231, , , , , , , 13.953, 4.971, -103.25,
 09:31:34.813,eb:33:2e:f9:57:b5, 2015-01-01 00:20:14.175, 0.657, -1.696, 1.205, 217.163, 120.911, 45.593, , , , , , , 15.112, 5.521, -102.887,
 09:31:34.813,eb:33:2e:f9:57:b5, 2015-01-01 00:20:14.175, 0.821, -1.601, 1.198, 201.721, 115.173, 49.866, , , , , , , 16.188, 6.021, -102.497,
 09:31:34.813,eb:33:2e:f9:57:b5, 2015-01-01 00:20:14.175, 0.974, -1.602, 1.172, 191.223, 116.455, 50.293, , , , , , , 17.199, 6.498, -102.085,
 09:31:34.813,eb:33:2e:f9:57:b5, 2015-01-01 00:20:14.175, 1.184, -1.801, 1.145, 183.35, 118.713, 46.875, , , , , , , 18.193, 6.993, -101.673,
 09:31:34.814,eb:33:2e:f9:57:b5, 2015-01-01 00:20:14.175, 1.252, -1.808, 0.189, 160.889, 101.624, 38.513, , , , , , , 19.083, 7.449, -101.294,
 09:31:34.814,eb:33:2e:f9:57:b5, 2015-01-01 00:20:14.175, 1.324, -1.581, 0.365, 141.907, 84.534, 25.879, , , , , , , 19.869, 7.822, -100.986,
 09:31:34.814,eb:33:2e:f9:57:b5, 2015-01-01 00:20:14.175, 1.433, -1.5, 0.363, 126.77, 64.209, 5.188, , , , , , , 20.561, 8.135, -100.8,
 09:31:34.904,eb:33:2e:f9:57:b5, 2015-01-01 00:20:14.175, 1.439, -1.571, 0.223, 98.938, 54.993, -15.564, , , , , , , 21.121, 8.421, -100.728,
 09:31:34.904,eb:33:2e:f9:57:b5, 2015-01-01 00:20:14.175, 1.392, -1.701, 0.364, 72.144, 55.969, -34.79, , , , , , , 21.528, 8.723, -100.756,
 09:31:34.904,eb:33:2e:f9:57:b5, 2015-01-01 00:20:14.175, 1.395, -1.724, 0.603, 48.706, 65.552, -54.138, , , , , , , 21.802, 9.097, -100.86,
 09:31:34.904,eb:33:2e:f9:57:b5, 2015-01-01 00:20:14.175, 1.44, -1.74, 0.539, 31.86, 70.19, -68.481, , , , , , , 21.967, 9.531, -101.025,
 09:31:34.904,eb:33:2e:f9:57:b5, 2015-01-01 00:20:14.175, 1.466, -1.729, 0.434, 15.503, 70.007, -82.764, , , , , , , 22.033, 10.003, -101.255,
 09:31:34.904,eb:33:2e:f9:57:b5, 2015-01-01 00:20:14.175, 1.486, -1.684, 0.396, -0.061, 66.467, -97.351, , , , , , , 22.011, 10.486, -101.558,
 09:31:34.904,eb:33:2e:f9:57:b5, 2015-01-01 00:20:14.175, 1.495, -1.655, 0.385, -16.113, 61.401, -112.061, , , , , , , 21.89, 10.981, -101.937,
 09:31:34.904,eb:33:2e:f9:57:b5, 2015-01-01 00:20:14.175, 1.476, -1.652, 0.394, -32.654, 56.152, -125.916, , , , , , , 21.671, 11.475, -102.398,
 09:31:34.948,eb:33:2e:f9:57:b5, 2015-01-01 00:20:14.175, 1.441, -1.647, 0.445, -48.096, 50.659, -138.672, , , , , , , 21.341, 11.964, -102.936,
 09:31:34.948,eb:33:2e:f9:57:b5, 2015-01-01 00:20:14.175, 1.381, -1.631, 0.51, -61.584, 44.556, -150.085, , , , , , , 20.929, 12.448, -103.546,
 09:31:34.948,eb:33:2e:f9:57:b5, 2015-01-01 00:20:14.175, 1.32, -1.614, 0.556, -72.449, 35.645, -160.095, , , , , , , 20.44, 12.909, -104.222,
 09:31:34.948,eb:33:2e:f9:57:b5, 2015-01-01 00:20:14.175, 1.232, -1.602, 0.606, -81.421, 23.987, -168.335, , , , , , , 19.88, 13.326, -104.969,
 09:31:34.948,eb:33:2e:f9:57:b5, 2015-01-01 00:20:14.175, 1.13, -1.611, 0.662, -89.05, 9.705, -173.889, , , , , , , 19.254, 13.683, -105.776,
 09:31:34.948,eb:33:2e:f9:57:b5, 2015-01-01 00:20:14.175, 1.031, -1.626, 0.745, -96.008, -5.798, -176.636, , , , , , , 18.583, 13.969, -106.633,
 09:31:34.948,eb:33:2e:f9:57:b5, 2015-01-01 00:20:14.175, 0.927, -1.645, 0.841, -102.6, -21.423, -176.453, , , , , , , 17.864, 14.172, -107.523,
 09:31:34.948,eb:33:2e:f9:57:b5, 2015-01-01 00:20:14.175, 0.816, -1.668, 0.922, -108.582, -37.659, -173.584, , , , , , , 17.111, 14.288, -108.43,
 09:31:35.017,eb:33:2e:f9:57:b5, 2015-01-01 00:20:14.175, 0.707, -1.68, 0.979, -113.892, -55.664, -168.579, , , , , , , 16.315, 14.299, -109.352,
 09:31:35.017,eb:33:2e:f9:57:b5, 2015-01-01 00:20:14.175, 0.594, -1.674, 1.025, -119.08, -74.951, -161.621, , , , , , , 15.507, 14.2, -110.264,
 09:31:35.017,eb:33:2e:f9:57:b5, 2015-01-01 00:20:14.175, 0.48, -1.67, 1.067, -124.146, -94.666, -152.771, , , , , , , 14.678, 13.986, -111.16,
 09:31:35.017,eb:33:2e:f9:57:b5, 2015-01-01 00:20:14.175, 0.364, -1.667, 1.113, -129.517, -113.342, -142.029, , , , , , , 13.832, 13.651, -112.022,
 09:31:35.017,eb:33:2e:f9:57:b5, 2015-01-01 00:20:14.175, 0.25, -1.652, 1.158, -135.193, -130.066, -129.944, , , , , , , 12.969, 13.2, -112.846,
 09:31:35.018,eb:33:2e:f9:57:b5, 2015-01-01 00:20:14.175, 0.135, -1.623, 1.195, -140.991, -144.958, -117.065, , , , , , , 12.101, 12.656, -113.615,
 09:31:35.018,eb:33:2e:f9:57:b5, 2015-01-01 00:20:14.175, 0.037, -1.579, 1.225, -146.851, -158.447, -103.882, , , , , , , 11.228, 12.014, -114.324,
 09:31:35.018,eb:33:2e:f9:57:b5, 2015-01-01 00:20:14.175, -0.056, -1.51, 1.265, -152.649, -169.373, -91.736, , , , , , , 10.344, 11.294, -114.961,
 09:31:35.039,eb:33:2e:f9:57:b5, 2015-01-01 00:20:14.175, -0.137, -1.42, 1.268, -158.203, -179.016, -81.055, , , , , , , 9.443, 10.497, -115.549,
 09:31:35.039,eb:33:2e:f9:57:b5, 2015-01-01 00:20:14.175, -0.212, -1.316, 1.264, -163.391, -187.317, -72.571, , , , , , , 8.547, 9.646, -116.076,
 09:31:35.039,eb:33:2e:f9:57:b5, 2015-01-01 00:20:14.175, -0.285, -1.201, 1.274, -169.189, -193.848, -65.674, , , , , , , 7.635, 8.745, -116.554,
 09:31:35.039,eb:33:2e:f9:57:b5, 2015-01-01 00:20:14.175, -0.371, -1.093, 1.314, -175.476, -197.083, -59.509, , , , , , , 6.707, 7.811, -116.988,
 09:31:35.039,eb:33:2e:f9:57:b5, 2015-01-01 00:20:14.175, -0.46, -0.998, 1.386, -181.946, -195.984, -53.101, , , , , , , 5.751, 6.855, -117.378,
 09:31:35.039,eb:33:2e:f9:57:b5, 2015-01-01 00:20:14.175, -0.535, -0.91, 1.471, -188.293, -189.392, -46.021, , , , , , , 4.785, 5.922, -117.713,
 09:31:35.039,eb:33:2e:f9:57:b5, 2015-01-01 00:20:14.175, -0.592, -0.837, 1.528, -193.359, -178.833, -37.72, , , , , , , 3.796, 5.021, -117.988,
 09:31:35.039,eb:33:2e:f9:57:b5, 2015-01-01 00:20:14.175, -0.654, -0.747, 1.527, -197.205, -166.809, -28.076, , , , , , , 2.802, 4.175, -118.196,
 09:31:35.196,eb:33:2e:f9:57:b5, 2015-01-01 00:20:14.175, -0.723, -0.617, 1.475, -199.463, -156.86, -17.395, , , , , , , 1.785, 3.367, -118.339,
 09:31:35.196,eb:33:2e:f9:57:b5, 2015-01-01 00:20:14.175, -0.783, -0.463, 1.406, -199.585, -150.269, -5.066, , , , , , , 0.786, 2.604, -118.411,
 09:31:35.196,eb:33:2e:f9:57:b5, 2015-01-01 00:20:14.175, -0.825, -0.313, 1.385, -196.106, -145.142, 9.094, , , , , , , -0.198, 1.868, -118.4,
 09:31:35.196,eb:33:2e:f9:57:b5, 2015-01-01 00:20:14.175, -0.824, -0.175, 1.381, -188.721, -140.076, 25.513, , , , , , , -1.159, 1.159, -118.295,
 09:31:35.196,eb:33:2e:f9:57:b5, 2015-01-01 00:20:14.175, -0.72, -0.047, 1.333, -178.589, -135.315, 43.03, , , , , , , -2.082, 0.472, -118.098,
 09:31:35.196,eb:33:2e:f9:57:b5, 2015-01-01 00:20:14.175, -0.603, 0.131, 1.183, -165.833, -133.362, 62.134, , , , , , , -2.933, -0.176, -117.795,
 09:31:35.196,eb:33:2e:f9:57:b5, 2015-01-01 00:20:14.175, -0.527, 0.326, 1.014, -155.212, -139.343, 74.768, , , , , , , -3.735, -0.835, -117.405,
 09:31:35.196,eb:33:2e:f9:57:b5, 2015-01-01 00:20:14.175, -0.465, 0.563, 0.909, -145.081, -150.818, 84.229, , , , , , , -4.493, -1.538, -116.949,
 09:31:35.198,eb:33:2e:f9:57:b5, 2015-01-01 00:20:14.175, -0.416, 0.808, 0.886, -137.939, -164.062, 90.576, , , , , , , -5.224, -2.296, -116.444,
 09:31:35.198,eb:33:2e:f9:57:b5, 2015-01-01 00:20:14.175, -0.365, 1.034, 0.923, -137.756, -175.171, 95.52, , , , , , , -5.938, -3.104, -115.895,
 09:31:35.198,eb:33:2e:f9:57:b5, 2015-01-01 00:20:14.175, -0.355, 1.176, 1.076, -142.334, -177.917, 99.915, , , , , , , -6.674, -3.933, -115.307,
 09:31:35.198,eb:33:2e:f9:57:b5, 2015-01-01 00:20:14.175, -0.376, 1.291, 1.207, -147.156, -175.842, 103.516, , , , , , , -7.449, -4.746, -114.692,
 09:31:35.198,eb:33:2e:f9:57:b5, 2015-01-01 00:20:14.175, -0.379, 1.409, 1.263, -150.635, -174.683, 105.774, , , , , , , -8.262, -5.548, -114.049,
 09:31:35.198,eb:33:2e:f9:57:b5, 2015-01-01 00:20:14.175, -0.389, 1.486, 1.332, -151.184, -173.767, 107.056, , , , , , , -9.091, -6.328, -113.384,
 09:31:35.198,eb:33:2e:f9:57:b5, 2015-01-01 00:20:14.175, -0.426, 1.531, 1.448, -146.545, -170.349, 107.727, , , , , , , -9.915, -7.086, -112.709,
 09:31:35.198,eb:33:2e:f9:57:b5, 2015-01-01 00:20:14.175, -0.456, 1.576, 1.568, -137.451, -164.307, 108.093, , , , , , , -10.712, -7.811, -112.022,
 09:31:35.200,eb:33:2e:f9:57:b5, 2015-01-01 00:20:14.175, -0.482, 1.614, 1.672, -125.732, -154.297, 108.032, , , , , , , -11.47, -8.492, -111.335,
 09:31:35.200,eb:33:2e:f9:57:b5, 2015-01-01 00:20:14.175, -0.49, 1.66, 1.715, -113.647, -141.541, 107.483, , , , , , , -12.167, -9.102, -110.649,
 09:31:35.200,eb:33:2e:f9:57:b5, 2015-01-01 00:20:14.175, -0.481, 1.727, 1.709, -102.722, -127.38, 105.774, , , , , , , -12.816, -9.635, -109.973,
 09:31:35.200,eb:33:2e:f9:57:b5, 2015-01-01 00:20:14.175, -0.454, 1.829, 1.659, -93.201, -115.173, 101.99, , , , , , , -13.409, -10.102, -109.325,
 09:31:35.200,eb:33:2e:f9:57:b5, 2015-01-01 00:20:14.175, -0.425, 1.944, 1.594, -84.656, -106.323, 95.52, , , , , , , -13.969, -10.519, -108.704,
 09:31:35.200,eb:33:2e:f9:57:b5, 2015-01-01 00:20:14.175, -0.412, 2.05, 1.548, -76.416, -100.525, 86.304, , , , , , , -14.48, -10.909, -108.133,
 09:31:35.200,eb:33:2e:f9:57:b5, 2015-01-01 00:20:14.175, -0.423, 2.145, 1.533, -67.444, -96.985, 74.829, , , , , , , -14.936, -11.283, -107.611,
 09:31:35.200,eb:33:2e:f9:57:b5, 2015-01-01 00:20:14.175, -0.472, 2.211, 1.57, -57.129, -93.445, 62.256, , , , , , , -15.331, -11.651, -107.155,
 09:31:35.219,eb:33:2e:f9:57:b5, 2015-01-01 00:20:14.175, -0.554, 2.255, 1.652, -45.288, -87.83, 49.988, , , , , , , -15.672, -12.019, -106.76,
 09:31:35.219,eb:33:2e:f9:57:b5, 2015-01-01 00:20:14.175, -0.659, 2.279, 1.757, -31.677, -79.529, 38.94, , , , , , , -15.93, -12.36, -106.436,
 09:31:35.219,eb:33:2e:f9:57:b5, 2015-01-01 00:20:14.175, -0.782, 2.281, 1.85, -16.541, -69.641, 29.541, , , , , , , -16.1, -12.667, -106.166,
 09:31:35.219,eb:33:2e:f9:57:b5, 2015-01-01 00:20:14.175, -0.895, 2.259, 1.903, -0.488, -59.631, 22.339, , , , , , , -16.183, -12.942, -105.952,
 09:31:35.219,eb:33:2e:f9:57:b5, 2015-01-01 00:20:14.175, -0.999, 2.221, 1.934, 14.648, -49.316, 17.578, , , , , , , -16.183, -13.173, -105.782,
 09:31:35.219,eb:33:2e:f9:57:b5, 2015-01-01 00:20:14.175, -1.093, 2.177, 1.95, 28.259, -37.964, 14.893, , , , , , , -16.1, -13.354, -105.639,
 09:31:35.219,eb:33:2e:f9:57:b5, 2015-01-01 00:20:14.175, -1.176, 2.136, 1.953, 40.955, -25.818, 14.099, , , , , , , -15.952, -13.486, -105.524,
 09:31:35.219,eb:33:2e:f9:57:b5, 2015-01-01 00:20:14.175, -1.24, 2.108, 1.927, 53.101, -13.916, 14.465, , , , , , , -15.732, -13.552, -105.43,
 09:31:35.221,eb:33:2e:f9:57:b5, 2015-01-01 00:20:14.175, -1.274, 2.078, 1.875, 64.88, -2.808, 15.747, , , , , , , -15.458, -13.568, -105.342,
 09:31:35.221,eb:33:2e:f9:57:b5, 2015-01-01 00:20:14.175, -1.298, 2.034, 1.831, 76.294, 9.033, 17.883, , , , , , , -15.117, -13.53, -105.266,
 09:31:35.221,eb:33:2e:f9:57:b5, 2015-01-01 00:20:14.175, -1.33, 1.971, 1.784, 87.158, 22.827, 21.118, , , , , , , -14.716, -13.42, -105.189,
 09:31:35.221,eb:33:2e:f9:57:b5, 2015-01-01 00:20:14.175, -1.37, 1.883, 1.71, 96.924, 38.208, 26.001, , , , , , , -14.271, -13.233, -105.112,
 09:31:35.221,eb:33:2e:f9:57:b5, 2015-01-01 00:20:14.175, -1.398, 1.763, 1.585, 106.323, 53.04, 32.776, , , , , , , -13.782, -12.969, -105.024,
 09:31:35.221,eb:33:2e:f9:57:b5, 2015-01-01 00:20:14.175, -1.396, 1.622, 1.432, 116.089, 65.613, 41.199, , , , , , , -13.25, -12.629, -104.908,
 09:31:35.221,eb:33:2e:f9:57:b5, 2015-01-01 00:20:14.175, 0.526, 1.455, 1.269, 126.343, 75.012, 51.147, , , , , , , -12.667, -12.228, -104.755,
 09:31:35.221,eb:33:2e:f9:57:b5, 2015-01-01 00:20:14.175, 1.422, 2.069, 4.587, 201.782, 44.006, -20.752, , , , , , , -11.893, -11.97, -104.672,
 09:31:35.221,eb:33:2e:f9:57:b5, 2015-01-01 00:20:14.175, 1.258, 1.618, 2.876, 233.948, 80.933, -67.322, , , , , , , -10.668, -11.574, -105.029,
 09:31:35.221,eb:33:2e:f9:57:b5, 2015-01-01 00:20:14.175, 0.649, -0.006, 1.92, 259.705, 64.636, -130.92, , , , , , , -9.327, -11.398, -105.65,
 09:31:35.221,eb:33:2e:f9:57:b5, 2015-01-01 00:20:14.175, 2.035, 0.659, 1.641, 212.83, 153.503, -92.834, , , , , , , -8.009, -10.794, -106.254,
 09:31:35.222,eb:33:2e:f9:57:b5, 2015-01-01 00:20:14.175, 1.148, 0.924, 2.553, 142.761, 221.863, -76.355, , , , , , , -7.075, -9.932, -106.826,
 09:31:35.222,eb:33:2e:f9:57:b5, 2015-01-01 00:20:14.175, 0.36, -0.003, 2.923, 106.567, 296.875, -25.879, , , , , , , -6.411, -8.58, -107.205,
 09:31:35.222,eb:33:2e:f9:57:b5, 2015-01-01 00:20:14.175, -0.594, -0.548, 2.354, 91.675, 312.378, 1.16, , , , , , , -5.9, -7.07, -107.424,
 09:31:35.222,eb:33:2e:f9:57:b5, 2015-01-01 00:20:14.175, -0.914, -0.712, 1.171, 98.694, 264.587, 9.766, , , , , , , -5.422, -5.636, -107.523,
 09:31:35.222,eb:33:2e:f9:57:b5, 2015-01-01 00:20:14.175, -0.926, -0.699, 0.729, 118.164, 224.792, 7.507, , , , , , , -4.867, -4.433, -107.584,
 09:31:35.265,eb:33:2e:f9:57:b5, 2015-01-01 00:20:14.175, -0.763, -0.308, 0.544, 128.418, 187.378, -3.601, , , , , , , -4.23, -3.428, -107.661,
 09:31:35.265,eb:33:2e:f9:57:b5, 2015-01-01 00:20:14.175, -0.368, 0.494, 0.545, 101.562, 133.728, -3.479, , , , , , , -3.658, -2.664, -107.737,
 09:31:35.265,eb:33:2e:f9:57:b5, 2015-01-01 00:20:14.175, 0, 0.162, 0.703, 86.975, 108.032, 1.282, , , , , , , -3.192, -2.071, -107.776,
 09:31:35.265,eb:33:2e:f9:57:b5, 2015-01-01 00:20:14.175, -0.213, 0.771, 0.751, 62.439, 72.266, -0.427, , , , , , , -2.829, -1.642, -107.781,
 09:31:35.265,eb:33:2e:f9:57:b5, 2015-01-01 00:20:14.175, 0.138, 0.442, 0.734, 42.969, 51.208, -1.282, , , , , , , -2.582, -1.362, -107.809,
 09:31:35.265,eb:33:2e:f9:57:b5, 2015-01-01 00:20:14.175, 0.195, 0.176, 0.78, 33.508, 58.105, -1.465, , , , , , , -2.401, -1.088, -107.82,
 09:31:35.265,eb:33:2e:f9:57:b5, 2015-01-01 00:20:14.175, 0.51, 0.072, 0.758, 28.687, 59.998, -1.953, , , , , , , -2.247, -0.797, -107.847,
 09:31:35.265,eb:33:2e:f9:57:b5, 2015-01-01 00:20:14.175, 0.246, 0.325, 1.102, 19.409, 74.707, -5.554, , , , , , , -2.131, -0.456, -107.875,
 09:31:35.309,eb:33:2e:f9:57:b5, 2015-01-01 00:20:14.175, 0.033, 0.03, 1.136, 17.7, 86.06, -6.348, , , , , , , -2.038, -0.044, -107.924,
 09:31:35.309,eb:33:2e:f9:57:b5, 2015-01-01 00:20:14.175, 0.057, -0.121, 1.014, 21.484, 83.374, -6.042, , , , , , , -1.945, 0.374, -107.968,
 09:31:35.309,eb:33:2e:f9:57:b5, 2015-01-01 00:20:14.175, -0.184, -0.054, 1.157, 26.855, 85.449, -10.925, , , , , , , -1.818, 0.797, -108.029,
 09:31:35.309,eb:33:2e:f9:57:b5, 2015-01-01 00:20:14.175, -0.309, -0.104, 0.984, 31.372, 77.82, -13.062, , , , , , , -1.675, 1.203, -108.1,
 09:31:35.309,eb:33:2e:f9:57:b5, 2015-01-01 00:20:14.175, -0.227, -0.096, 0.859, 34.607, 63.965, -13.428, , , , , , , -1.511, 1.549, -108.177,
 09:31:35.309,eb:33:2e:f9:57:b5, 2015-01-01 00:20:14.175, -0.229, 0.003, 0.872, 34.363, 54.321, -14.954, , , , , , , -1.335, 1.835, -108.259,
 09:31:35.309,eb:33:2e:f9:57:b5, 2015-01-01 00:20:14.175, -0.282, -0.032, 0.855, 33.569, 45.654, -14.648, , , , , , , -1.17, 2.076, -108.336,
 09:31:35.309,eb:33:2e:f9:57:b5, 2015-01-01 00:20:14.175, -0.199, -0.043, 0.849, 33.813, 34.729, -14.221, , , , , , , -1.005, 2.274, -108.413,
 09:31:35.332,eb:33:2e:f9:57:b5, 2015-01-01 00:20:14.870, -0.049, -0.039, 0.951, 34.607, 26.978, -14.221, , , , , , , -0.84, 2.417, -108.484,
 09:31:35.332,eb:33:2e:f9:57:b5, 2015-01-01 00:20:14.870, 0.113, -0.056, 1.096, 36.316, 26.367, -14.465, , , , , , , -0.665, 2.549, -108.561,
 09:31:35.332,eb:33:2e:f9:57:b5, 2015-01-01 00:20:14.870, 0.124, -0.037, 1.247, 38.696, 33.386, -15.747, , , , , , , -0.478, 2.697, -108.638,
 09:31:35.332,eb:33:2e:f9:57:b5, 2015-01-01 00:20:14.870, 0.058, -0.015, 1.277, 39.49, 42.542, -15.625, , , , , , , -0.286, 2.895, -108.721,
 09:31:35.332,eb:33:2e:f9:57:b5, 2015-01-01 00:20:14.870, -0.13, -0.036, 1.179, 39.734, 48.95, -14.648, , , , , , , -0.093, 3.126, -108.792,
 09:31:35.332,eb:33:2e:f9:57:b5, 2015-01-01 00:20:14.870, -0.193, -0.047, 1.026, 39.734, 46.265, -12.634, , , , , , , 0.099, 3.367, -108.864,
 09:31:35.332,eb:33:2e:f9:57:b5, 2015-01-01 00:20:14.870, -0.111, -0.043, 0.979, 38.513, 39.246, -9.705, , , , , , , 0.286, 3.576, -108.918,
 09:31:35.332,eb:33:2e:f9:57:b5, 2015-01-01 00:20:14.870, -0.028, 0.006, 1.028, 36.621, 35.034, -7.202, , , , , , , 0.472, 3.763, -108.957,
 09:31:35.376,eb:33:2e:f9:57:b5, 2015-01-01 00:20:14.870, -0.075, 0.007, 1.069, 34.058, 34.851, -4.028, , , , , , , 0.648, 3.933, -108.979,
 09:31:35.376,eb:33:2e:f9:57:b5, 2015-01-01 00:20:14.870, -0.066, -0.009, 1.062, 31.799, 33.936, 0, , , , , , , 0.807, 4.109, -108.984,
 09:31:35.376,eb:33:2e:f9:57:b5, 2015-01-01 00:20:14.870, -0.073, 0.016, 1.067, 30.273, 30.579, 2.38, , , , , , , 0.967, 4.268, -108.973,
 09:31:35.377,eb:33:2e:f9:57:b5, 2015-01-01 00:20:14.870, -0.01, -0.011, 1.104, 28.076, 28.198, 7.019, , , , , , , 1.11, 4.417, -108.946,
 09:31:35.377,eb:33:2e:f9:57:b5, 2015-01-01 00:20:14.870, -0.092, 0.008, 1.154, 28.137, 24.78, 8.85, , , , , , , 1.252, 4.543, -108.902,
 09:31:35.377,eb:33:2e:f9:57:b5, 2015-01-01 00:20:14.870, -0.224, -0.035, 1.134, 31.25, 16.418, 13.916, , , , , , , 1.406, 4.647, -108.842,
 09:31:35.377,eb:33:2e:f9:57:b5, 2015-01-01 00:20:14.870, 0.012, -0.152, 1.368, 43.945, -6.836, 19.836, , , , , , , 1.604, 4.664, -108.748,
 09:31:35.377,eb:33:2e:f9:57:b5, 2015-01-01 00:20:14.870, -0.063, -0.129, 1.602, 59.448, -14.709, 20.569, , , , , , , 1.873, 4.598, -108.655,
 09:31:35.467,eb:33:2e:f9:57:b5, 2015-01-01 00:20:14.870, 0.036, -0.26, 1.736, 80.2, -25.94, 24.292, , , , , , , 2.236, 4.488, -108.539,
 09:31:35.467,eb:33:2e:f9:57:b5, 2015-01-01 00:20:14.870, -0.03, -0.434, 2.348, 116.821, -37.964, 29.48, , , , , , , 2.747, 4.307, -108.419,
 09:31:35.467,eb:33:2e:f9:57:b5, 2015-01-01 00:20:14.870, -0.153, -0.783, 3.364, 167.847, -37.903, 39.917, , , , , , , 3.488, 4.103, -108.248,
 09:31:35.467,eb:33:2e:f9:57:b5, 2015-01-01 00:20:14.870, -0.193, -0.877, 4.494, 221.619, -14.648, 44.8, , , , , , , 4.493, 3.977, -108.045,
 09:31:35.467,eb:33:2e:f9:57:b5, 2015-01-01 00:20:14.870, 0.085, -1.117, 4.894, 285.461, 6.897, 53.467, , , , , , , 5.812, 3.95, -107.803,
 09:31:35.467,eb:33:2e:f9:57:b5, 2015-01-01 00:20:14.870, 0.557, -0.666, 4.714, 325.5, 17.761, 51.331, , , , , , , 7.377, 4.01, -107.529,
 09:31:35.467,eb:33:2e:f9:57:b5, 2015-01-01 00:20:14.870, 0.885, -1.082, 4.338, 375.427, 26.062, 43.091, , , , , , , 9.179, 4.07, -107.281,
 09:31:35.468,eb:33:2e:f9:57:b5, 2015-01-01 00:20:14.870, 1.285, -1.336, 4.521, 421.57, 56.091, 31.372, , , , , , , 11.212, 4.246, -107.067,
 09:31:35.468,eb:33:2e:f9:57:b5, 2015-01-01 00:20:14.870, 1.5, -1.392, 4.495, 460.938, 103.577, 17.822, , , , , , , 13.442, 4.631, -106.864,
 09:31:35.468,eb:33:2e:f9:57:b5, 2015-01-01 00:20:14.870, 1.617, -1.058, 3.849, 493.591, 120.239, -7.629, , , , , , , 15.864, 5.186, -106.699,
 09:31:35.468,eb:33:2e:f9:57:b5, 2015-01-01 00:20:14.870, 1.447, -0.963, 3.559, 516.174, 139.221, -31.799, , , , , , , 18.413, 5.85, -106.611,
 09:31:35.468,eb:33:2e:f9:57:b5, 2015-01-01 00:20:14.870, 1.433, -1.343, 3.671, 541.199, 168.152, -50.476, , , , , , , 21.072, 6.669, -106.551,
 09:31:35.468,eb:33:2e:f9:57:b5, 2015-01-01 00:20:14.870, 1.02, -1.344, 2.874, 568.787, 184.998, -68.665, , , , , , , 23.868, 7.625, -106.485,
 09:31:35.468,eb:33:2e:f9:57:b5, 2015-01-01 00:20:14.870, 0.957, -0.943, 2.292, 573.669, 163.391, -94.971, , , , , , , 26.735, 8.591, -106.496,
 09:31:35.468,eb:33:2e:f9:57:b5, 2015-01-01 00:20:14.870, 0.682, -1.093, 2.295, 570.862, 148.071, -111.267, , , , , , , 29.575, 9.509, -106.606,
 09:31:35.468,eb:33:2e:f9:57:b5, 2015-01-01 00:20:14.870, 0.608, -1.134, 2.226, 571.777, 149.719, -116.882, , , , , , , 32.415, 10.459, -106.71,
 09:31:35.488,eb:33:2e:f9:57:b5, 2015-01-01 00:20:14.870, 0.245, -0.889, 2.126, 569.092, 134.583, -123.047, , , , , , , 35.239, 11.376, -106.82,
 09:31:35.488,eb:33:2e:f9:57:b5, 2015-01-01 00:20:14.870, -0.523, -0.353, 2.208, 555.847, 120.911, -128.235, , , , , , , 38.029, 12.25, -106.957,
 09:31:35.488,eb:33:2e:f9:57:b5, 2015-01-01 00:20:14.870, -0.634, 0.585, 3.277, 514.465, 126.77, -125.793, , , , , , , 40.655, 13.123, -107.073,
 09:31:35.488,eb:33:2e:f9:57:b5, 2015-01-01 00:20:14.870, -1.273, -0.792, 3.572, 479.248, 166.565, -85.266, , , , , , , 43.143, 14.019, -106.963,
 09:31:35.488,eb:33:2e:f9:57:b5, 2015-01-01 00:20:14.870, -0.439, -0.259, 0.985, 411.377, 148.865, -51.392, , , , , , , 45.45, 14.837, -106.595,
 09:31:35.488,eb:33:2e:f9:57:b5, 2015-01-01 00:20:14.870, -0.363, 0.771, 0.531, 270.447, 135.925, -26.55, , , , , , , 47.197, 15.408, -106.249,
 09:31:35.488,eb:33:2e:f9:57:b5, 2015-01-01 00:20:14.870, -0.727, -2.02, 0.578, 148.01, 202.576, 51.514, , , , , , , 48.34, 15.936, -105.518,
 09:31:35.488,eb:33:2e:f9:57:b5, 2015-01-01 00:20:14.870, -0.641, -2.771, 0.231, 140.32, 269.592, 145.752, , , , , , , 49.389, 16.32, -104.183,
 09:31:35.533,eb:33:2e:f9:57:b5, 2015-01-01 00:20:14.870, -0.036, -0.856, 0.421, 140.564, 240.051, 194.946, , , , , , , 50.576, 16.474, -102.541,
 09:31:35.533,eb:33:2e:f9:57:b5, 2015-01-01 00:20:14.870, 0.295, 0.414, 0.989, 101.318, 167.542, 209.717, , , , , , , 51.57, 16.287, -101.074,
 09:31:35.533,eb:33:2e:f9:57:b5, 2015-01-01 00:20:14.870, 0.457, -0.311, 1.372, 81.726, 128.357, 214.539, , , , , , , 52.361, 15.881, -99.816,
 09:31:35.533,eb:33:2e:f9:57:b5, 2015-01-01 00:20:14.870, 0.662, -1.255, 1.601, 83.923, 137.512, 204.224, , , , , , , 53.086, 15.441, -98.613,
 09:31:35.533,eb:33:2e:f9:57:b5, 2015-01-01 00:20:14.870, 0.973, -1.063, 1.569, 106.873, 136.536, 178.406, , , , , , , 53.866, 15.084, -97.454,
 09:31:35.533,eb:33:2e:f9:57:b5, 2015-01-01 00:20:14.870, 0.894, -0.596, 1.723, 130.92, 130.127, 140.442, , , , , , , 54.739, 14.837, -96.422,
 09:31:35.533,eb:33:2e:f9:57:b5, 2015-01-01 00:20:14.870, 0.824, -0.339, 1.494, 144.958, 110.901, 97.351, , , , , , , 55.657, 14.711, -95.576,
 09:31:35.533,eb:33:2e:f9:57:b5, 2015-01-01 00:20:14.870, 0.86, -0.402, 1.309, 149.597, 86.06, 51.819, , , , , , , 56.552, 14.683, -94.96,
 09:31:35.601,eb:33:2e:f9:57:b5, 2015-01-01 00:20:14.870, 0.884, -0.659, 1.348, 148.926, 64.88, 6.348, , , , , , , 57.382, 14.777, -94.581,
 09:31:35.601,eb:33:2e:f9:57:b5, 2015-01-01 00:20:14.870, 0.796, -0.983, 1.546, 141.296, 58.655, -34.241, , , , , , , 58.162, 15.018, -94.367,
 09:31:35.601,eb:33:2e:f9:57:b5, 2015-01-01 00:20:14.870, 0.731, -1.298, 1.697, 127.441, 63.782, -67.81, , , , , , , 58.859, 15.408, -94.246,
 09:31:35.601,eb:33:2e:f9:57:b5, 2015-01-01 00:20:14.870, 0.756, -1.571, 1.776, 110.84, 74.097, -95.642, , , , , , , 59.469, 15.952, -94.158,
 09:31:35.601,eb:33:2e:f9:57:b5, 2015-01-01 00:20:14.870, 0.795, -1.783, 1.793, 92.712, 88.135, -118.164, , , , , , , 59.98, 16.633, -94.081,
 09:31:35.601,eb:33:2e:f9:57:b5, 2015-01-01 00:20:14.870, 0.815, -1.924, 1.731, 72.998, 103.699, -136.475, , , , , , , 60.414, 17.435, -93.977,
 09:31:35.601,eb:33:2e:f9:57:b5, 2015-01-01 00:20:14.870, 0.813, -1.984, 1.61, 52.185, 116.638, -151.611, , , , , , , 60.76, 18.347, -93.84,
 09:31:35.601,eb:33:2e:f9:57:b5, 2015-01-01 00:20:14.870, 0.801, -1.98, 1.451, 32.043, 123.596, -164.246, , , , , , , 61.007, 19.336, -93.686,
 09:31:35.623,eb:33:2e:f9:57:b5, 2015-01-01 00:20:14.870, 0.827, -1.942, 1.316, 14.16, 124.207, -174.866, , , , , , , 61.139, 20.385, -93.554,
 09:31:35.623,eb:33:2e:f9:57:b5, 2015-01-01 00:20:14.870, 0.913, -1.913, 1.281, -0.366, 122.314, -183.167, , , , , , , 61.205, 21.467, -93.444,
 09:31:35.623,eb:33:2e:f9:57:b5, 2015-01-01 00:20:14.870, 0.989, -1.917, 1.356, -11.353, 122.864, -189.026, , , , , , , 61.205, 22.582, -93.345,
 09:31:35.623,eb:33:2e:f9:57:b5, 2015-01-01 00:20:14.870, 0.967, -1.905, 1.419, -20.142, 125, -192.139, , , , , , , 61.155, 23.719, -93.257,
 09:31:35.623,eb:33:2e:f9:57:b5, 2015-01-01 00:20:14.870, 0.889, -1.839, 1.386, -28.442, 122.009, -193.237, , , , , , , 61.046, 24.862, -93.186,
 09:31:35.624,eb:33:2e:f9:57:b5, 2015-01-01 00:20:14.870, 0.801, -1.727, 1.34, -36.499, 111.938, -190.796, , , , , , , 60.897, 25.983, -93.137,
 09:31:35.624,eb:33:2e:f9:57:b5, 2015-01-01 00:20:14.870, 0.683, -1.615, 1.427, -44.189, 99.365, -184.265, , , , , , , 60.688, 27.054, -93.137,
 09:31:35.624,eb:33:2e:f9:57:b5, 2015-01-01 00:20:14.870, 0.528, -1.511, 1.622, -50.049, 87.708, -173.462, , , , , , , 60.43, 28.059, -93.175,
 09:31:35.646,eb:33:2e:f9:57:b5, 2015-01-01 00:20:14.870, 0.382, -1.422, 1.853, -53.162, 77.087, -158.691, , , , , , , 60.117, 28.971, -93.252,
 09:31:35.646,eb:33:2e:f9:57:b5, 2015-01-01 00:20:14.870, 0.239, -1.387, 2.064, -53.406, 68.115, -139.526, , , , , , , 59.815, 29.789, -93.318,
 09:31:35.646,eb:33:2e:f9:57:b5, 2015-01-01 00:20:14.870, 0.13, -1.431, 2.198, -52.246, 60.852, -116.089, , , , , , , 59.524, 30.493, -93.367,
 09:31:35.646,eb:33:2e:f9:57:b5, 2015-01-01 00:20:14.870, 0.034, -1.521, 2.24, -51.941, 56.458, -88.44, , , , , , , 59.26, 31.069, -93.373,
 09:31:35.646,eb:33:2e:f9:57:b5, 2015-01-01 00:20:14.870, -0.015, -1.579, 2.168, -54.626, 51.819, -58.289, , , , , , , 58.997, 31.509, -93.329,
 09:31:35.646,eb:33:2e:f9:57:b5, 2015-01-01 00:20:14.870, 0.006, -1.559, 2.026, -61.035, 45.471, -27.588, , , , , , , 58.771, 31.805, -93.208,
 09:31:35.646,eb:33:2e:f9:57:b5, 2015-01-01 00:20:14.870, 0.077, -1.48, 1.877, -69.641, 35.95, 0.793, , , , , , , 58.53, 31.954, -93.038,
 09:31:35.646,eb:33:2e:f9:57:b5, 2015-01-01 00:20:14.870, 0.186, -1.345, 1.713, -78.552, 22.461, 24.902, , , , , , , 58.255, 31.959, -92.845,
 09:31:35.713,eb:33:2e:f9:57:b5, 2015-01-01 00:20:15.225, 0.285, -1.166, 1.532, -86.487, 4.272, 42.236, , , , , , , 57.898, 31.833, -92.692,
 09:31:35.713,eb:33:2e:f9:57:b5, 2015-01-01 00:20:15.225, 0.386, -0.95, 1.355, -93.933, -18.799, 52.429, , , , , , , 57.497, 31.602, -92.587,
 09:31:35.713,eb:33:2e:f9:57:b5, 2015-01-01 00:20:15.225, 0.462, -0.734, 1.237, -102.539, -42.236, 55.908, , , , , , , 57.008, 31.278, -92.571,
 09:31:35.713,eb:33:2e:f9:57:b5, 2015-01-01 00:20:15.225, 0.514, -0.547, 1.156, -114.075, -62.622, 53.772, , , , , , , 56.415, 30.899, -92.664,
 09:31:35.713,eb:33:2e:f9:57:b5, 2015-01-01 00:20:15.225, 0.537, -0.417, 1.068, -130.31, -78.674, 48.462, , , , , , , 55.673, 30.482, -92.867,
 09:31:35.713,eb:33:2e:f9:57:b5, 2015-01-01 00:20:15.225, 0.563, -0.307, 0.953, -156.982, -91.736, 39.246, , , , , , , 54.811, 30.053, -93.142,
 09:31:35.714,eb:33:2e:f9:57:b5, 2015-01-01 00:20:15.225, 0.587, -0.247, 0.874, -183.228, -97.534, 29.724, , , , , , , 53.778, 29.641, -93.472,
 09:31:35.714,eb:33:2e:f9:57:b5, 2015-01-01 00:20:15.225, 0.658, -0.169, 0.714, -211.609, -101.99, 18.005, , , , , , , 52.592, 29.246, -93.856,
 09:31:35.736,eb:33:2e:f9:57:b5, 2015-01-01 00:20:15.225, 0.768, -0.092, 0.536, -240.417, -106.689, 2.991, , , , , , , 51.202, 28.883, -94.312,
 09:31:35.737,eb:33:2e:f9:57:b5, 2015-01-01 00:20:15.225, 0.873, -0.032, 0.391, -266.968, -115.112, -15.808, , , , , , , 49.669, 28.559, -94.834,
 09:31:35.737,eb:33:2e:f9:57:b5, 2015-01-01 00:20:15.225, 0.905, -0.006, 0.293, -290.833, -128.174, -36.804, , , , , , , 47.961, 28.262, -95.46,
 09:31:35.737,eb:33:2e:f9:57:b5, 2015-01-01 00:20:15.225, 0.838, -0.022, 0.266, -312.134, -143.738, -58.228, , , , , , , 46.082, 27.977, -96.224,
 09:31:35.737,eb:33:2e:f9:57:b5, 2015-01-01 00:20:15.225, 0.735, -0.065, 0.311, -330.811, -161.682, -77.698, , , , , , , 44.011, 27.669, -97.141,
 09:31:35.737,eb:33:2e:f9:57:b5, 2015-01-01 00:20:15.225, 0.603, -0.108, 0.493, -346.069, -178.162, -92.834, , , , , , , 41.836, 27.339, -98.163,
 09:31:35.737,eb:33:2e:f9:57:b5, 2015-01-01 00:20:15.225, 0.442, -0.161, 0.736, -358.276, -191.711, -102.234, , , , , , , 39.562, 26.955, -99.267,
 09:31:35.737,eb:33:2e:f9:57:b5, 2015-01-01 00:20:15.225, 0.363, -0.257, 0.924, -369.019, -201.477, -104.431, , , , , , , 37.222, 26.499, -100.41,
 09:31:35.781,eb:33:2e:f9:57:b5, 2015-01-01 00:20:15.225, 0.341, -0.367, 1.14, -378.662, -204.285, -101.746, , , , , , , 34.816, 25.972, -101.563,
 09:31:35.781,eb:33:2e:f9:57:b5, 2015-01-01 00:20:15.225, 0.308, -0.427, 1.272, -386.658, -205.078, -94.666, , , , , , , 32.432, 25.389, -102.64,
 09:31:35.781,eb:33:2e:f9:57:b5, 2015-01-01 00:20:15.225, 0.305, -0.438, 1.292, -392.273, -209.167, -84.778, , , , , , , 30.048, 24.736, -103.656,
 09:31:35.781,eb:33:2e:f9:57:b5, 2015-01-01 00:20:15.225, 0.341, -0.437, 1.296, -394.958, -216.248, -73.181, , , , , , , 27.691, 23.989, -104.595,
 09:31:35.782,eb:33:2e:f9:57:b5, 2015-01-01 00:20:15.225, 0.426, -0.438, 1.292, -393.799, -226.685, -61.707, , , , , , , 25.34, 23.132, -105.474,
 09:31:35.782,eb:33:2e:f9:57:b5, 2015-01-01 00:20:15.225, 0.49, -0.426, 1.283, -388.245, -240.112, -51.575, , , , , , , 23.077, 22.176, -106.271,
 09:31:35.782,eb:33:2e:f9:57:b5, 2015-01-01 00:20:15.225, 0.544, -0.387, 1.269, -377.808, -256.897, -43.396, , , , , , , 20.896, 21.099, -107.007,
 09:31:35.782,eb:33:2e:f9:57:b5, 2015-01-01 00:20:15.225, 0.577, -0.316, 1.325, -363.037, -272.827, -38.574, , , , , , , 18.809, 19.918, -107.688,
 09:31:35.826,eb:33:2e:f9:57:b5, 2015-01-01 00:20:15.225, 0.569, -0.224, 1.448, -344.788, -283.081, -38.025, , , , , , , 16.804, 18.627, -108.347,
 09:31:35.826,eb:33:2e:f9:57:b5, 2015-01-01 00:20:15.225, 0.489, -0.105, 1.58, -324.707, -287.903, -39.612, , , , , , , 14.947, 17.303, -108.957,
 09:31:35.826,eb:33:2e:f9:57:b5, 2015-01-01 00:20:15.225, 0.328, 0.012, 1.67, -303.589, -290.588, -41.87, , , , , , , 13.222, 15.947, -109.534,
 09:31:35.826,eb:33:2e:f9:57:b5, 2015-01-01 00:20:15.225, 0.097, 0.09, 1.729, -282.41, -294.373, -42.358, , , , , , , 11.624, 14.562, -110.072,
 09:31:35.826,eb:33:2e:f9:57:b5, 2015-01-01 00:20:15.225, -0.136, 0.12, 1.8, -262.146, -299.5, -38.208, , , , , , , 10.129, 13.123, -110.577,
 09:31:35.826,eb:33:2e:f9:57:b5, 2015-01-01 00:20:15.225, -0.378, 0.093, 1.942, -244.019, -303.162, -27.466, , , , , , , 8.784, 11.662, -110.995,
 09:31:35.826,eb:33:2e:f9:57:b5, 2015-01-01 00:20:15.225, -0.587, 0.054, 2.072, -231.567, -306.763, -10.01, , , , , , , 7.542, 10.162, -111.302,
 09:31:35.826,eb:33:2e:f9:57:b5, 2015-01-01 00:20:15.225, -0.709, 0.045, 2.124, -231.445, -310.181, 13.611, , , , , , , 6.361, 8.63, -111.473,
 09:31:35.849,eb:33:2e:f9:57:b5, 2015-01-01 00:20:15.225, -0.796, 0.042, 2.148, -246.155, -310.974, 43.396, , , , , , , 5.136, 7.048, -111.484,
 09:31:35.849,eb:33:2e:f9:57:b5, 2015-01-01 00:20:15.225, -0.852, 0.101, 2.151, -273.56, -311.34, 76.111, , , , , , , 3.851, 5.471, -111.292,
 09:31:35.849,eb:33:2e:f9:57:b5, 2015-01-01 00:20:15.225, -0.857, 0.242, 2.184, -308.044, -312.195, 109.863, , , , , , , 2.411, 3.889, -110.896,
 09:31:35.849,eb:33:2e:f9:57:b5, 2015-01-01 00:20:15.225, -0.826, 0.449, 2.272, -343.567, -315.552, 142.029, , , , , , , 0.791, 2.302, -110.292,
 09:31:35.849,eb:33:2e:f9:57:b5, 2015-01-01 00:20:15.225, -0.72, 0.699, 2.344, -375.061, -323.669, 169.556, , , , , , , -1.027, 0.687, -109.495,
 09:31:35.849,eb:33:2e:f9:57:b5, 2015-01-01 00:20:15.225, -0.531, 1.014, 2.413, -399.597, -336.609, 190.491, , , , , , , -2.983, -0.934, -108.528,
 09:31:35.849,eb:33:2e:f9:57:b5, 2015-01-01 00:20:15.225, -0.388, 1.342, 2.572, -409.729, -347.046, 204.712, , , , , , , -5.054, -2.571, -107.413,
 09:31:35.849,eb:33:2e:f9:57:b5, 2015-01-01 00:20:15.225, -0.265, 1.841, 2.797, -396.423, -359.985, 209.656, , , , , , , -7.147, -4.224, -106.183,
 09:31:35.893,eb:33:2e:f9:57:b5, 2015-01-01 00:20:15.225, -0.184, 2.331, 3.1, -368.225, -367.615, 203.613, , , , , , , -9.19, -5.9, -104.897,
 09:31:35.893,eb:33:2e:f9:57:b5, 2015-01-01 00:20:15.225, -0.236, 2.765, 3.453, -334.778, -365.601, 191.711, , , , , , , -11.085, -7.531, -103.596,
 09:31:35.893,eb:33:2e:f9:57:b5, 2015-01-01 00:20:15.225, -0.362, 3.113, 3.693, -302.734, -353.394, 177.124, , , , , , , -12.849, -9.102, -102.316,
 09:31:35.893,eb:33:2e:f9:57:b5, 2015-01-01 00:20:15.225, -0.535, 3.456, 3.889, -271.79, -329.041, 162.659, , , , , , , -14.48, -10.552, -101.074,
 09:31:35.893,eb:33:2e:f9:57:b5, 2015-01-01 00:20:15.225, -0.729, 3.801, 4.065, -242.554, -291.931, 150.085, , , , , , , -16.007, -11.843, -99.899,
 09:31:35.893,eb:33:2e:f9:57:b5, 2015-01-01 00:20:15.225, -0.834, 4.104, 4.1, -216.614, -247.314, 138.611, , , , , , , -17.375, -12.909, -98.811,
 09:31:35.893,eb:33:2e:f9:57:b5, 2015-01-01 00:20:15.225, -0.843, 4.371, 3.992, -193.909, -201.599, 125.61, , , , , , , -18.616, -13.755, -97.822,
 09:31:35.893,eb:33:2e:f9:57:b5, 2015-01-01 00:20:15.225, -0.822, 4.64, 3.769, -171.692, -161.194, 107.788, , , , , , , -19.731, -14.398, -96.96,
 09:31:35.939,eb:33:2e:f9:57:b5, 2015-01-01 00:20:15.225, -0.75, 4.907, 3.407, -149.292, -131.592, 83.923, , , , , , , -20.726, -14.914, -96.246,
 09:31:35.939,eb:33:2e:f9:57:b5, 2015-01-01 00:20:15.225, -0.661, 5.095, 3.055, -126.343, -109.68, 55.054, , , , , , , -21.544, -15.342, -95.702,
 09:31:35.939,eb:33:2e:f9:57:b5, 2015-01-01 00:20:15.225, -0.571, 5.184, 2.798, -102.417, -89.905, 23.132, , , , , , , -22.203, -15.727, -95.339,
 09:31:35.939,eb:33:2e:f9:57:b5, 2015-01-01 00:20:15.225, -0.543, 5.149, 2.639, -77.759, -67.566, -9.155, , , , , , , -22.687, -16.078, -95.169,
 09:31:35.939,eb:33:2e:f9:57:b5, 2015-01-01 00:20:15.225, -0.585, 4.98, 2.462, -55.359, -43.823, -39.246, , , , , , , -23.016, -16.381, -95.191,
 09:31:35.939,eb:33:2e:f9:57:b5, 2015-01-01 00:20:15.225, -0.641, 4.679, 2.235, -37.109, -20.935, -64.819, , , , , , , -23.181, -16.628, -95.394,
 09:31:35.939,eb:33:2e:f9:57:b5, 2015-01-01 00:20:15.225, -0.786, 4.27, 2.033, -20.935, 0.671, -83.801, , , , , , , -23.214, -16.815, -95.751,
 09:31:35.939,eb:33:2e:f9:57:b5, 2015-01-01 00:20:15.225, -0.999, 3.85, 1.836, -4.333, 16.052, -95.642, , , , , , , -23.137, -16.946, -96.213,
 09:31:35.985,eb:33:2e:f9:57:b5, 2015-01-01 00:20:15.515, 0.692, 3.417, 1.686, 20.264, 13.672, -103.943, , , , , , , -22.956, -17.062, -96.729,
 09:31:35.985,eb:33:2e:f9:57:b5, 2015-01-01 00:20:15.515, -1.938, 2.032, 8.289, 186.829, 134.644, -126.343, , , , , , , -22.203, -17.205, -97.383,
 09:31:35.985,eb:33:2e:f9:57:b5, 2015-01-01 00:20:15.515, -1.205, 2.682, 9.29, 337.341, 459.961, -132.812, , , , , , , -20.407, -15.765, -98.663,
 09:31:35.985,eb:33:2e:f9:57:b5, 2015-01-01 00:20:15.515, -1.932, 5.324, 0.375, 290.344, 467.712, -169.434, , , , , , , -18.419, -13.81, -100.239,
 09:31:35.985,eb:33:2e:f9:57:b5, 2015-01-01 00:20:15.515, -7.353, 3.348, 6.734, 493.591, 447.327, -170.044, , , , , , , -16.057, -12.014, -101.849,
 09:31:35.985,eb:33:2e:f9:57:b5, 2015-01-01 00:20:15.515, -2.834, 3.599, 1.249, 618.958, 420.41, -23.682, , , , , , , -12.914, -9.998, -102.684,
 09:31:35.985,eb:33:2e:f9:57:b5, 2015-01-01 00:20:15.515, -3.643, 3.187, 3.092, 559.387, 309.204, -30.09, , , , , , , -9.833, -8.366, -103.206,
 09:31:35.985,eb:33:2e:f9:57:b5, 2015-01-01 00:20:15.515, -1.423, 4.167, 1.901, 382.324, 217.773, -41.687, , , , , , , -7.542, -7.103, -103.601,
 09:31:36.029,eb:33:2e:f9:57:b5, 2015-01-01 00:20:15.515, 0.068, 2.362, 2.742, 253.54, 214.661, -20.203, , , , , , , -5.988, -6.092, -103.859,
 09:31:36.029,eb:33:2e:f9:57:b5, 2015-01-01 00:20:15.515, 0.433, 1.61, 3.223, 146.118, 218.994, -27.344, , , , , , , -5.037, -4.988, -104.084,
 09:31:36.029,eb:33:2e:f9:57:b5, 2015-01-01 00:20:15.515, 0.208, 0.408, 2.113, 101.929, 154.175, -32.532, , , , , , , -4.438, -4.098, -104.315,
 09:31:36.029,eb:33:2e:f9:57:b5, 2015-01-01 00:20:15.515, 0.284, -0.623, 1.185, 110.291, 129.211, -25.33, , , , , , , -3.911, -3.428, -104.513,
 09:31:36.029,eb:33:2e:f9:57:b5, 2015-01-01 00:20:15.515, 0.679, -1.02, 0.796, 142.09, 139.587, -2.441, , , , , , , -3.246, -2.769, -104.612,
 09:31:36.029,eb:33:2e:f9:57:b5, 2015-01-01 00:20:15.515, 1.489, -0.602, 1.372, 152.588, 198.914, 23.865, , , , , , , -2.505, -1.895, -104.579,
 09:31:36.029,eb:33:2e:f9:57:b5, 2015-01-01 00:20:15.515, 0.581, 0.714, 1.575, 137.207, 234.009, 23.621, , , , , , , -1.769, -0.818, -104.485,
 09:31:36.029,eb:33:2e:f9:57:b5, 2015-01-01 00:20:15.515, -1.277, 2.062, 1.305, 74.829, 242.981, -11.658, , , , , , , -1.263, 0.423, -104.507,
 09:31:36.051,eb:33:2e:f9:57:b5, 2015-01-01 00:20:15.515, -0.323, 0.065, -0.036, 59.326, 155.823, -10.986, , , , , , , -0.961, 1.384, -104.59,
 09:31:36.051,eb:33:2e:f9:57:b5, 2015-01-01 00:20:15.515, -0.433, -0.013, 0.525, 63.599, 122.803, -19.348, , , , , , , -0.643, 2.049, -104.667,
 09:31:36.051,eb:33:2e:f9:57:b5, 2015-01-01 00:20:15.515, -0.514, 0.144, 0.875, 51.819, 105.286, -22.217, , , , , , , -0.374, 2.615, -104.793,
 09:31:36.051,eb:33:2e:f9:57:b5, 2015-01-01 00:20:15.515, -0.355, -0.229, 0.752, 56.824, 79.834, -20.691, , , , , , , -0.11, 3.065, -104.897,
 09:31:36.051,eb:33:2e:f9:57:b5, 2015-01-01 00:20:15.515, 0.007, -0.07, 0.954, 60.303, 65.308, -22.522, , , , , , , 0.181, 3.411, -105.007,
 09:31:36.051,eb:33:2e:f9:57:b5, 2015-01-01 00:20:15.515, 0.255, 0.169, 1.144, 55.237, 63.721, -24.414, , , , , , , 0.456, 3.724, -105.123,
 09:31:36.051,eb:33:2e:f9:57:b5, 2015-01-01 00:20:15.515, -0.175, 0.054, 1.247, 54.26, 81.421, -26.794, , , , , , , 0.72, 4.098, -105.249,
 09:31:36.051,eb:33:2e:f9:57:b5, 2015-01-01 00:20:15.515, -0.16, 0.078, 0.965, 51.331, 78.369, -25.269, , , , , , , 0.978, 4.51, -105.375,
 09:31:36.096,eb:33:2e:f9:57:b5, 2015-01-01 00:20:15.515, -0.289, -0.014, 1.012, 51.636, 72.876, -23.438, , , , , , , 1.225, 4.878, -105.491,
 09:31:36.096,eb:33:2e:f9:57:b5, 2015-01-01 00:20:15.515, -0.313, -0.056, 0.981, 53.955, 65.002, -20.386, , , , , , , 1.478, 5.235, -105.59,
 09:31:36.096,eb:33:2e:f9:57:b5, 2015-01-01 00:20:15.515, -0.037, -0.022, 0.997, 54.321, 50.72, -16.235, , , , , , , 1.741, 5.51, -105.672,
 09:31:36.096,eb:33:2e:f9:57:b5, 2015-01-01 00:20:15.515, -0.086, -0.077, 1.227, 58.899, 51.514, -15.259, , , , , , , 2.021, 5.768, -105.743,
 09:31:36.096,eb:33:2e:f9:57:b5, 2015-01-01 00:20:15.515, 0.015, 0.07, 1.111, 60.791, 45.593, -15.564, , , , , , , 2.318, 6.01, -105.809,
 09:31:36.096,eb:33:2e:f9:57:b5, 2015-01-01 00:20:15.515, 0.049, 0.054, 1.249, 62.012, 44.983, -16.541, , , , , , , 2.615, 6.24, -105.881,
 09:31:36.096,eb:33:2e:f9:57:b5, 2015-01-01 00:20:15.515, 0.147, 0.035, 1.34, 68.115, 40.283, -18.982, , , , , , , 2.928, 6.465, -105.963,
 09:31:36.096,eb:33:2e:f9:57:b5, 2015-01-01 00:20:15.515, 0.179, 0.099, 1.524, 69.824, 32.654, -20.325, , , , , , , 3.268, 6.641, -106.051,
 09:31:36.141,eb:33:2e:f9:57:b5, 2015-01-01 00:20:15.515, -0.238, -0.051, 1.65, 77.637, 23.132, -13.062, , , , , , , 3.631, 6.79, -106.128,
 09:31:36.141,eb:33:2e:f9:57:b5, 2015-01-01 00:20:15.515, -0.777, -0.462, 2.083, 95.093, 2.991, 7.751, , , , , , , 4.065, 6.85, -106.133,
 09:31:36.141,eb:33:2e:f9:57:b5, 2015-01-01 00:20:15.515, -1.127, -1.055, 2.981, 130.31, -11.047, 44.556, , , , , , , 4.647, 6.828, -105.991,
 09:31:36.141,eb:33:2e:f9:57:b5, 2015-01-01 00:20:15.515, -0.979, -1.276, 3.479, 194.031, -40.344, 73.12, , , , , , , 5.515, 6.652, -105.688,
 09:31:36.141,eb:33:2e:f9:57:b5, 2015-01-01 00:20:15.515, -0.544, -1.036, 4.534, 257.69, -58.777, 76.294, , , , , , , 6.724, 6.356, -105.331,
 09:31:36.141,eb:33:2e:f9:57:b5, 2015-01-01 00:20:15.515, -0.14, -1.35, 4.743, 315.063, -62.683, 77.698, , , , , , , 8.234, 6.004, -104.985,
 09:31:36.141,eb:33:2e:f9:57:b5, 2015-01-01 00:20:15.515, 0.408, -1.74, 4.722, 373.474, -39.49, 84.29, , , , , , , 10.02, 5.691, -104.628,
 09:31:36.141,eb:33:2e:f9:57:b5, 2015-01-01 00:20:15.515, 0.887, -1.533, 4.487, 424.683, -18.066, 84.29, , , , , , , 12.079, 5.477, -104.233,
 09:31:36.186,eb:33:2e:f9:57:b5, 2015-01-01 00:20:15.515, 0.898, -1.366, 3.876, 480.164, 4.517, 75.928, , , , , , , 14.409, 5.367, -103.837,
 09:31:36.186,eb:33:2e:f9:57:b5, 2015-01-01 00:20:15.515, 1.012, -1.315, 3.742, 527.588, 15.015, 49.072, , , , , , , 16.979, 5.345, -103.53,
 09:31:36.186,eb:33:2e:f9:57:b5, 2015-01-01 00:20:15.515, 0.989, -1.315, 3.774, 559.814, 31.189, 20.935, , , , , , , 19.737, 5.411, -103.343,
 09:31:36.186,eb:33:2e:f9:57:b5, 2015-01-01 00:20:15.515, 0.824, -1.367, 3.798, 586.975, 59.265, -4.883, , , , , , , 22.626, 5.62, -103.228,
 09:31:36.186,eb:33:2e:f9:57:b5, 2015-01-01 00:20:15.515, 0.701, -1.438, 3.523, 606.934, 78.674, -22.461, , , , , , , 25.631, 5.977, -103.156,
 09:31:36.186,eb:33:2e:f9:57:b5, 2015-01-01 00:20:15.515, 0.811, -1.041, 3.432, 618.347, 88.501, -46.997, , , , , , , 28.707, 6.449, -103.118,
 09:31:36.186,eb:33:2e:f9:57:b5, 2015-01-01 00:20:15.515, 0.218, -1.461, 3.41, 630.737, 104.736, -52.979, , , , , , , 31.833, 6.982, -103.101,
 09:31:36.186,eb:33:2e:f9:57:b5, 2015-01-01 00:20:15.515, 0.486, -0.727, 3.046, 631.348, 92.773, -71.35, , , , , , , 35.002, 7.57, -103.09,
 09:31:36.233,eb:33:2e:f9:57:b5, 2015-01-01 00:20:15.515, -0.531, -0.987, 3.241, 616.089, 91.614, -71.167, , , , , , , 38.101, 8.119, -103.134,
 09:31:36.233,eb:33:2e:f9:57:b5, 2015-01-01 00:20:15.515, -0.515, 0.006, 3.415, 567.932, 97.046, -74.463, , , , , , , 41.05, 8.745, -103.107,
 09:31:36.233,eb:33:2e:f9:57:b5, 2015-01-01 00:20:15.515, -0.917, -0.085, 4.097, 512.512, 137.512, -51.819, , , , , , , 43.753, 9.399, -102.931,
 09:31:36.233,eb:33:2e:f9:57:b5, 2015-01-01 00:20:15.515, -1.309, -0.228, 3.51, 435.364, 216.675, -11.78, , , , , , , 46.176, 10.14, -102.382,
 09:31:36.233,eb:33:2e:f9:57:b5, 2015-01-01 00:20:15.515, -0.581, -0.403, 1.242, 373.962, 228.699, 36.621, , , , , , , 48.34, 10.827, -101.475,
 09:31:36.233,eb:33:2e:f9:57:b5, 2015-01-01 00:20:15.515, 0.365, -0.576, -0.266, 281.494, 236.267, 85.51, , , , , , , 50.142, 11.338, -100.349,
 09:31:36.233,eb:33:2e:f9:57:b5, 2015-01-01 00:20:15.515, 0.094, 0.155, -0.544, 251.587, 219.91, 118.347, , , , , , , 51.691, 11.662, -99.091,
 09:31:36.233,eb:33:2e:f9:57:b5, 2015-01-01 00:20:15.515, 0.095, 1.454, -0.146, 209.778, 163.147, 123.901, , , , , , , 53.064, 11.733, -97.954,
 09:31:36.254,eb:33:2e:f9:57:b5, 2015-01-01 00:20:15.805, 0.489, 1.442, 1.176, 186.096, 100.647, 111.633, , , , , , , 54.19, 11.629, -97.086,
 09:31:36.254,eb:33:2e:f9:57:b5, 2015-01-01 00:20:15.805, 0.366, 0.806, 2.587, 194.58, 75.134, 93.201, , , , , , , 55.267, 11.453, -96.443,
 09:31:36.254,eb:33:2e:f9:57:b5, 2015-01-01 00:20:15.805, 0.545, 0.465, 3.01, 229.248, 58.411, 60.12, , , , , , , 56.426, 11.332, -95.949,
 09:31:36.254,eb:33:2e:f9:57:b5, 2015-01-01 00:20:15.805, 0.631, 0.318, 3.45, 276.733, 47.18, 24.719, , , , , , , 57.777, 11.305, -95.63,
 09:31:36.254,eb:33:2e:f9:57:b5, 2015-01-01 00:20:15.805, 0.608, 0.094, 3.752, 313.599, 45.654, -9.521, , , , , , , 59.31, 11.409, -95.422,
 09:31:36.254,eb:33:2e:f9:57:b5, 2015-01-01 00:20:15.805, 0.617, -0.266, 3.844, 329.834, 49.805, -41.931, , , , , , , 60.958, 11.651, -95.284,
 09:31:36.254,eb:33:2e:f9:57:b5, 2015-01-01 00:20:15.805, 0.611, -0.725, 3.845, 332.703, 55.481, -71.899, , , , , , , 62.639, 12.047, -95.186,
 09:31:36.254,eb:33:2e:f9:57:b5, 2015-01-01 00:20:15.805, 0.552, -1.103, 3.783, 325.439, 60.852, -97.046, , , , , , , 64.297, 12.568, -95.114,
 09:31:36.299,eb:33:2e:f9:57:b5, 2015-01-01 00:20:15.805, 0.56, -1.374, 3.778, 308.594, 70.251, -118.286, , , , , , , 65.874, 13.2, -95.054,
 09:31:36.299,eb:33:2e:f9:57:b5, 2015-01-01 00:20:15.805, 0.829, -1.656, 3.911, 287.72, 88.562, -136.414, , , , , , , 67.385, 13.953, -94.933,
 09:31:36.299,eb:33:2e:f9:57:b5, 2015-01-01 00:20:15.805, 1.236, -2.011, 4.153, 268.25, 119.08, -153.931, , , , , , , 68.818, 14.832, -94.708,
 09:31:36.299,eb:33:2e:f9:57:b5, 2015-01-01 00:20:15.805, 1.586, -2.416, 4.229, 250, 158.63, -171.692, , , , , , , 70.208, 15.853, -94.318,
 09:31:36.299,eb:33:2e:f9:57:b5, 2015-01-01 00:20:15.805, 1.872, -2.804, 3.94, 230.53, 196.777, -188.538, , , , , , , 71.543, 17.007, -93.735,
 09:31:36.299,eb:33:2e:f9:57:b5, 2015-01-01 00:20:15.805, 2.058, -3.039, 3.374, 206.787, 224.365, -207.092, , , , , , , 72.85, 18.287, -92.983,
 09:31:36.299,eb:33:2e:f9:57:b5, 2015-01-01 00:20:15.805, 2.067, -3.109, 2.613, 176.514, 233.398, -227.6, , , , , , , 74.07, 19.666, -92.137,
 09:31:36.299,eb:33:2e:f9:57:b5, 2015-01-01 00:20:15.805, 1.945, -3.079, 1.801, 140.503, 216.98, -249.756, , , , , , , 75.135, 21.127, -91.318,
 09:31:36.343,eb:33:2e:f9:57:b5, 2015-01-01 00:20:15.805, 1.753, -3.071, 1.225, 101.929, 180.176, -270.813, , , , , , , 75.938, 22.637, -90.659,
 09:31:36.343,eb:33:2e:f9:57:b5, 2015-01-01 00:20:15.805, 1.55, -3.087, 1.053, 65.063, 135.803, -286.865, , , , , , , 76.514, 24.186, -90.214,
 09:31:36.343,eb:33:2e:f9:57:b5, 2015-01-01 00:20:15.805, 1.386, -3.11, 1.272, 31.494, 98.694, -294.189, , , , , , , 76.833, 25.735, -89.978,
 09:31:36.343,eb:33:2e:f9:57:b5, 2015-01-01 00:20:15.805, 1.211, -3.167, 1.686, 1.77, 80.322, -290.955, , , , , , , 76.943, 27.263, -89.879,
 09:31:36.344,eb:33:2e:f9:57:b5, 2015-01-01 00:20:15.805, 1.064, -3.249, 2.045, -23.438, 80.505, -277.222, , , , , , , 76.871, 28.729, -89.83,
 09:31:36.344,eb:33:2e:f9:57:b5, 2015-01-01 00:20:15.805, 0.894, -3.29, 2.154, -46.57, 96.924, -253.296, , , , , , , 76.761, 30.114, -89.67,
 09:31:36.344,eb:33:2e:f9:57:b5, 2015-01-01 00:20:15.805, 0.818, -3.293, 2.104, -67.932, 115.234, -221.802, , , , , , , 76.613, 31.382, -89.368,
 09:31:36.344,eb:33:2e:f9:57:b5, 2015-01-01 00:20:15.805, 0.781, -3.226, 2.036, -87.646, 133.118, -186.89, , , , , , , 76.454, 32.509, -88.923,
 09:31:36.411,eb:33:2e:f9:57:b5, 2015-01-01 00:20:15.805, 0.785, -3.072, 1.827, -105.713, 143.677, -151.611, , , , , , , 76.234, 33.475, -88.369,
 09:31:36.411,eb:33:2e:f9:57:b5, 2015-01-01 00:20:15.805, 0.768, -2.846, 1.498, -122.437, 136.536, -117.859, , , , , , , 76.009, 34.283, -87.731,
 09:31:36.411,eb:33:2e:f9:57:b5, 2015-01-01 00:20:15.805, 0.765, -2.621, 1.086, -138.794, 106.689, -85.938, , , , , , , 75.668, 34.904, -87.166,
 09:31:36.411,eb:33:2e:f9:57:b5, 2015-01-01 00:20:15.805, 0.784, -2.458, 0.719, -156.311, 62.073, -55.054, , , , , , , 75.135, 35.332, -86.792,
 09:31:36.411,eb:33:2e:f9:57:b5, 2015-01-01 00:20:15.805, 0.872, -2.39, 0.5, -175.476, 13.855, -23.926, , , , , , , 74.333, 35.552, -86.688,
 09:31:36.411,eb:33:2e:f9:57:b5, 2015-01-01 00:20:15.805, 1.003, -2.327, 0.438, -195.801, -27.405, 4.822, , , , , , , 73.345, 35.568, -86.765,
 09:31:36.411,eb:33:2e:f9:57:b5, 2015-01-01 00:20:15.805, 1.116, -2.086, 0.329, -223.022, -69.214, 33.691, , , , , , , 72.136, 35.381, -87.028,
 09:31:36.411,eb:33:2e:f9:57:b5, 2015-01-01 00:20:15.805, 1.232, -1.749, 0.234, -248.169, -101.379, 48.706, , , , , , , 70.697, 35.035, -87.457,
 09:31:36.413,eb:33:2e:f9:57:b5, 2015-01-01 00:20:15.805, 1.332, -1.377, 0.188, -274.231, -132.141, 54.077, , , , , , , 69.005, 34.579, -88.066,
 09:31:36.413,eb:33:2e:f9:57:b5, 2015-01-01 00:20:15.805, 1.423, -1.032, 0.186, -299.866, -161.56, 51.636, , , , , , , 67.148, 34.052, -88.786,
 09:31:36.413,eb:33:2e:f9:57:b5, 2015-01-01 00:20:15.805, 1.471, -0.725, 0.287, -322.815, -188.66, 41.748, , , , , , , 65.094, 33.481, -89.648,
 09:31:36.413,eb:33:2e:f9:57:b5, 2015-01-01 00:20:15.805, 1.452, -0.451, 0.438, -342.712, -213.928, 25.818, , , , , , , 62.864, 32.888, -90.659,
 09:31:36.414,eb:33:2e:f9:57:b5, 2015-01-01 00:20:15.805, 1.38, -0.23, 0.537, -360.84, -238.831, 5.371, , , , , , , 60.43, 32.278, -91.846,
 09:31:36.414,eb:33:2e:f9:57:b5, 2015-01-01 00:20:15.805, 1.235, -0.155, 0.629, -379.089, -261.292, -15.015, , , , , , , 57.881, 31.663, -93.148,
 09:31:36.414,eb:33:2e:f9:57:b5, 2015-01-01 00:20:15.805, 1.143, -0.243, 0.81, -398.926, -276.55, -31.86, , , , , , , 55.195, 31.02, -94.554,
 09:31:36.414,eb:33:2e:f9:57:b5, 2015-01-01 00:20:15.805, 1.094, -0.378, 1.111, -420.898, -278.137, -44.128, , , , , , , 52.399, 30.355, -95.999,
 09:31:36.477,eb:33:2e:f9:57:b5, 2015-01-01 00:20:15.805, 1.013, -0.473, 1.409, -442.444, -270.935, -52.185, , , , , , , 49.477, 29.674, -97.438,
 09:31:36.477,eb:33:2e:f9:57:b5, 2015-01-01 00:20:15.805, 0.937, -0.536, 1.571, -460.693, -264.526, -57.495, , , , , , , 46.544, 28.987, -98.784,
 09:31:36.477,eb:33:2e:f9:57:b5, 2015-01-01 00:20:15.805, 0.875, -0.586, 1.601, -475.037, -266.846, -60.852, , , , , , , 43.572, 28.262, -100.096,
 09:31:36.477,eb:33:2e:f9:57:b5, 2015-01-01 00:20:15.805, 0.839, -0.643, 1.583, -485.168, -280.64, -62.256, , , , , , , 40.556, 27.455, -101.393,
 09:31:36.478,eb:33:2e:f9:57:b5, 2015-01-01 00:20:15.805, 0.829, -0.725, 1.646, -491.089, -301.392, -61.035, , , , , , , 37.474, 26.494, -102.722,
 09:31:36.478,eb:33:2e:f9:57:b5, 2015-01-01 00:20:15.805, 0.854, -0.846, 1.821, -493.225, -322.144, -57.495, , , , , , , 34.442, 25.395, -104.013,
 09:31:36.478,eb:33:2e:f9:57:b5, 2015-01-01 00:20:15.805, 0.791, -0.976, 2.017, -491.821, -341.858, -53.04, , , , , , , 31.454, 24.148, -105.266,
 09:31:36.479,eb:33:2e:f9:57:b5, 2015-01-01 00:20:15.805, 0.771, -1.069, 2.097, -488.647, -361.877, -47.363, , , , , , , 28.526, 22.736, -106.463,
 09:31:36.547,eb:33:2e:f9:57:b5, 2015-01-01 00:20:15.805, 0.87, -1.131, 2.319, -483.459, -376.282, -42.114, , , , , , , 25.631, 21.165, -107.611,
 09:31:36.547,eb:33:2e:f9:57:b5, 2015-01-01 00:20:15.805, 0.913, -1.114, 2.665, -474.121, -380.737, -41.382, , , , , , , 22.879, 19.517, -108.644,
 09:31:36.547,eb:33:2e:f9:57:b5, 2015-01-01 00:20:15.805, 0.79, -0.986, 2.851, -459.29, -384.888, -44.556, , , , , , , 20.248, 17.82, -109.594,
 09:31:36.547,eb:33:2e:f9:57:b5, 2015-01-01 00:20:15.805, 0.595, -0.784, 2.888, -440.247, -397.522, -49.561, , , , , , , 17.743, 16.046, -110.495,
 09:31:36.547,eb:33:2e:f9:57:b5, 2015-01-01 00:20:15.805, 0.333, -0.613, 2.995, -418.884, -414.368, -53.589, , , , , , , 15.337, 14.139, -111.374,
 09:31:36.547,eb:33:2e:f9:57:b5, 2015-01-01 00:20:15.805, -0.04, -0.491, 3.206, -400.208, -430.664, -51.636, , , , , , , 13.118, 12.145, -112.176,
 09:31:36.547,eb:33:2e:f9:57:b5, 2015-01-01 00:20:15.805, -0.481, -0.389, 3.467, -389.832, -441.284, -39.368, , , , , , , 11.019, 10.058, -112.863,
 09:31:36.547,eb:33:2e:f9:57:b5, 2015-01-01 00:20:15.805, -0.918, -0.275, 3.794, -388.184, -441.406, -14.465, , , , , , , 8.992, 7.899, -113.379,
 09:31:36.547,eb:33:2e:f9:57:b5, 2015-01-01 00:20:15.805, -1.287, -0.128, 4.185, -391.785, -428.833, 22.949, , , , , , , 6.971, 5.718, -113.665,
 09:31:36.547,eb:33:2e:f9:57:b5, 2015-01-01 00:20:15.805, -1.506, 0.098, 4.491, -398.376, -410.4, 68.359, , , , , , , 4.993, 3.615, -113.632,
 09:31:36.547,eb:33:2e:f9:57:b5, 2015-01-01 00:20:15.805, -1.597, 0.449, 4.569, -409.485, -394.531, 117.798, , , , , , , 2.983, 1.582, -113.286,
 09:31:36.547,eb:33:2e:f9:57:b5, 2015-01-01 00:20:15.805, -1.534, 0.864, 4.476, -426.025, -387.878, 167.053, , , , , , , 0.895, -0.385, -112.61,
 09:31:36.548,eb:33:2e:f9:57:b5, 2015-01-01 00:20:15.805, -1.397, 1.29, 4.421, -445.007, -388.733, 211.243, , , , , , , -1.357, -2.346, -111.638,
 09:31:36.548,eb:33:2e:f9:57:b5, 2015-01-01 00:20:15.805, -1.167, 1.808, 4.45, -461.365, -395.508, 245.667, , , , , , , -3.702, -4.252, -110.385,
 09:31:36.548,eb:33:2e:f9:57:b5, 2015-01-01 00:20:15.805, -0.912, 2.527, 4.577, -469.727, -405.151, 264.832, , , , , , , -6.174, -6.141, -108.918,
 09:31:36.548,eb:33:2e:f9:57:b5, 2015-01-01 00:20:15.805, -0.864, 3.496, 4.727, -464.294, -417.175, 268.25, , , , , , , -8.712, -8.009, -107.314,
 09:31:36.591,eb:33:2e:f9:57:b5, 2015-01-01 00:20:15.805, -0.946, 4.865, 4.879, -429.443, -442.505, 250.244, , , , , , , -11.25, -9.926, -105.639,
 09:31:36.591,eb:33:2e:f9:57:b5, 2015-01-01 00:20:15.805, -1.002, 5.875, 5.226, -373.962, -461.182, 218.567, , , , , , , -13.552, -11.898, -103.986,
 09:31:36.591,eb:33:2e:f9:57:b5, 2015-01-01 00:20:15.805, -1.212, 6.597, 5.821, -307.8, -446.045, 181.03, , , , , , , -15.573, -13.859, -102.42,
 09:31:36.591,eb:33:2e:f9:57:b5, 2015-01-01 00:20:15.805, -1.589, 7.071, 6.222, -253.418, -382.324, 145.203, , , , , , , -17.292, -15.606, -101.03,
 09:31:36.591,eb:33:2e:f9:57:b5, 2015-01-01 00:20:15.805, -1.866, 7.341, 6.182, -218.811, -282.166, 114.38, , , , , , , -18.809, -16.963, -99.877,
 09:31:36.591,eb:33:2e:f9:57:b5, 2015-01-01 00:20:15.805, -1.901, 7.435, 5.911, -193.054, -159.363, 87.463, , , , , , , -20.078, -17.787, -99.025,
 09:31:36.591,eb:33:2e:f9:57:b5, 2015-01-01 00:20:15.805, -1.693, 7.509, 5.367, -165.222, -37.903, 59.021, , , , , , , -21.116, -18.062, -98.525,
 09:31:36.591,eb:33:2e:f9:57:b5, 2015-01-01 00:20:15.805, -1.387, 7.644, 4.444, -135.742, 56.274, 22.705, , , , , , , -21.901, -17.897, -98.377,
 09:31:36.615,eb:33:2e:f9:57:b5, 2015-01-01 00:20:16.165, -1.164, 7.698, 3.389, -106.506, 111.328, -22.217, , , , , , , -22.451, -17.479, -98.575,
 09:31:36.615,eb:33:2e:f9:57:b5, 2015-01-01 00:20:16.165, -1.149, 7.542, 2.51, -78.186, 129.639, -68.909, , , , , , , -22.753, -17.001, -99.075,
 09:31:36.615,eb:33:2e:f9:57:b5, 2015-01-01 00:20:16.165, -1.395, 7.109, 2.008, -50.476, 124.634, -109.07, , , , , , , -22.857, -16.595, -99.783,
 09:31:36.615,eb:33:2e:f9:57:b5, 2015-01-01 00:20:16.165, -1.797, 6.363, 1.855, -20.386, 111.267, -134.888, , , , , , , -22.78, -16.298, -100.629,
 09:31:36.615,eb:33:2e:f9:57:b5, 2015-01-01 00:20:16.165, -2.172, 5.406, 1.842, 12.146, 100.952, -141.113, , , , , , , -22.549, -16.095, -101.508,
 09:31:36.615,eb:33:2e:f9:57:b5, 2015-01-01 00:20:16.165, -2.419, 4.353, 1.862, 43.945, 98.999, -127.747, , , , , , , -22.159, -15.892, -102.354,
 09:31:36.615,eb:33:2e:f9:57:b5, 2015-01-01 00:20:16.165, -2.566, 3.309, 1.791, 71.777, 106.934, -98.45, , , , , , , -21.654, -15.623, -103.09,
 09:31:36.615,eb:33:2e:f9:57:b5, 2015-01-01 00:20:16.165, -2.491, 2.382, 1.54, 97.778, 114.685, -60.974, , , , , , , -21.066, -15.238, -103.672,
 09:31:36.682,eb:33:2e:f9:57:b5, 2015-01-01 00:20:16.165, -2.405, 1.642, 1.195, 121.765, 122.986, -19.958, , , , , , , -20.407, -14.749, -104.068,
 09:31:36.682,eb:33:2e:f9:57:b5, 2015-01-01 00:20:16.165, 2.927, 1.11, 0.671, 232.422, 1.77, -30.396, , , , , , , -19.578, -14.299, -104.271,
 09:31:36.682,eb:33:2e:f9:57:b5, 2015-01-01 00:20:16.165, -1.062, 3.263, 9.588, 587.952, 328.491, -151.794, , , , , , , -17.007, -14.282, -105.04,
 09:31:36.682,eb:33:2e:f9:57:b5, 2015-01-01 00:20:16.165, 2.849, 8.3, -3.125, 605.042, 231.14, -338.379, , , , , , , -13.574, -13.189, -106.655,
 09:31:36.682,eb:33:2e:f9:57:b5, 2015-01-01 00:20:16.165, -0.588, 0.14, 2.434, 641.785, 359.741, -265.076, , , , , , , -10.042, -11.997, -108.715,
 09:31:36.682,eb:33:2e:f9:57:b5, 2015-01-01 00:20:16.165, -0.735, 5.925, 4.605, 435.913, 505.005, -157.227, , , , , , , -7.103, -9.91, -109.874,
 09:31:36.682,eb:33:2e:f9:57:b5, 2015-01-01 00:20:16.165, -1.218, 1.89, 4.463, 291.504, 566.956, -38.635, , , , , , , -5.246, -7.273, -110.649,
 09:31:36.682,eb:33:2e:f9:57:b5, 2015-01-01 00:20:16.165, -0.492, 0.613, 3.405, 160.339, 518.616, 71.35, , , , , , , -4.257, -4.587, -110.72,
 09:31:36.704,eb:33:2e:f9:57:b5, 2015-01-01 00:20:16.165, -2.352, 1.654, 1.833, 86.426, 401.367, 70.068, , , , , , , -3.664, -2.197, -110.495,
 09:31:36.704,eb:33:2e:f9:57:b5, 2015-01-01 00:20:16.165, -0.966, -0.5, -0.292, 89.294, 132.507, 51.331, , , , , , , -3.274, -1.104, -110.27,
 09:31:36.704,eb:33:2e:f9:57:b5, 2015-01-01 00:20:16.165, 0.01, -1.022, 1.109, 136.353, 185.791, 28.015, , , , , , , -2.692, -0.335, -110.121,
 09:31:36.704,eb:33:2e:f9:57:b5, 2015-01-01 00:20:16.165, 0.109, -1.003, 0.821, 189.88, 180.908, 7.751, , , , , , , -1.835, 0.582, -110.067,
 09:31:36.704,eb:33:2e:f9:57:b5, 2015-01-01 00:20:16.165, -0.369, 0.34, 1.009, 168.945, 170.715, 5.615, , , , , , , -0.906, 1.533, -110.089,
 09:31:36.704,eb:33:2e:f9:57:b5, 2015-01-01 00:20:16.165, 0.216, 1.553, 0.617, 110.413, 117.249, 11.536, , , , , , , -0.242, 2.159, -110.023,
 09:31:36.704,eb:33:2e:f9:57:b5, 2015-01-01 00:20:16.165, 0.226, 0.497, 0.664, 90.21, 118.53, -8.118, , , , , , , 0.22, 2.818, -110.034,
 09:31:36.704,eb:33:2e:f9:57:b5, 2015-01-01 00:20:16.165, 0.57, 0.363, 0.686, 87.402, 93.201, -21.301, , , , , , , 0.67, 3.279, -110.105,
 09:31:36.749,eb:33:2e:f9:57:b5, 2015-01-01 00:20:16.165, -1.014, 0.653, 1.231, 65.674, 140.259, -32.715, , , , , , , 1.038, 3.895, -110.242,
 09:31:36.749,eb:33:2e:f9:57:b5, 2015-01-01 00:20:16.165, -0.68, -0.049, 0.305, 60.852, 92.957, -23.193, , , , , , , 1.335, 4.493, -110.369,
 09:31:36.749,eb:33:2e:f9:57:b5, 2015-01-01 00:20:16.165, -0.116, -0.083, 0.712, 60.181, 51.819, -19.348, , , , , , , 1.631, 4.812, -110.468,
 09:31:36.749,eb:33:2e:f9:57:b5, 2015-01-01 00:20:16.165, 0.514, -0.083, 1.198, 65.613, 47.913, -19.714, , , , , , , 1.939, 5.054, -110.555,
 09:31:36.749,eb:33:2e:f9:57:b5, 2015-01-01 00:20:16.165, 0.363, 0.164, 1.676, 68.298, 77.393, -30.762, , , , , , , 2.274, 5.372, -110.671,
 09:31:36.749,eb:33:2e:f9:57:b5, 2015-01-01 00:20:16.165, 0.226, 0.164, 1.416, 65.186, 102.966, -30.701, , , , , , , 2.587, 5.85, -110.814,
 09:31:36.749,eb:33:2e:f9:57:b5, 2015-01-01 00:20:16.165, -0.043, 0.156, 1.147, 69.885, 103.394, -29.602, , , , , , , 2.911, 6.383, -110.934,
 09:31:36.749,eb:33:2e:f9:57:b5, 2015-01-01 00:20:16.165, -0.486, 0.017, 1.386, 71.167, 107.91, -30.457, , , , , , , 3.252, 6.921, -111.066,
 09:31:36.794,eb:33:2e:f9:57:b5, 2015-01-01 00:20:16.165, -0.47, -0.08, 0.985, 73.669, 85.144, -21.729, , , , , , , 3.609, 7.399, -111.16,
 09:31:36.794,eb:33:2e:f9:57:b5, 2015-01-01 00:20:16.165, -0.328, 0.026, 1.268, 72.205, 67.139, -16.113, , , , , , , 3.961, 7.773, -111.226,
 09:31:36.794,eb:33:2e:f9:57:b5, 2015-01-01 00:20:16.165, -0.175, -0.346, 1.744, 80.505, 59.57, -5.371, , , , , , , 4.345, 8.091, -111.253,
 09:31:36.794,eb:33:2e:f9:57:b5, 2015-01-01 00:20:16.165, -0.56, -0.169, 1.586, 93.079, 42.297, 1.77, , , , , , , 4.785, 8.344, -111.237,
 09:31:36.794,eb:33:2e:f9:57:b5, 2015-01-01 00:20:16.165, -1.517, -0.217, 1.926, 111.511, 19.043, 13.916, , , , , , , 5.323, 8.465, -111.182,
 09:31:36.794,eb:33:2e:f9:57:b5, 2015-01-01 00:20:16.165, -0.945, -1.321, 3.343, 155.334, -18.127, 54.565, , , , , , , 6.026, 8.421, -110.989,
 09:31:36.794,eb:33:2e:f9:57:b5, 2015-01-01 00:20:16.165, -0.703, -1.106, 3.431, 203.491, -34.607, 74.646, , , , , , , 6.998, 8.245, -110.665,
 09:31:36.794,eb:33:2e:f9:57:b5, 2015-01-01 00:20:16.165, -0.544, -0.913, 3.065, 249.512, -61.523, 82.886, , , , , , , 8.201, 7.943, -110.297,
 09:31:36.818,eb:33:2e:f9:57:b5, 2015-01-01 00:20:16.165, -0.066, -1.088, 3.328, 304.749, -96.497, 84.961, , , , , , , 9.662, 7.471, -109.935,
 09:31:36.818,eb:33:2e:f9:57:b5, 2015-01-01 00:20:16.165, 0.447, -1.041, 3.625, 362.61, -115.112, 76.355, , , , , , , 11.398, 6.861, -109.638,
 09:31:36.818,eb:33:2e:f9:57:b5, 2015-01-01 00:20:16.165, 0.761, -1.194, 4.134, 410.156, -108.948, 65.918, , , , , , , 13.387, 6.224, -109.418,
 09:31:36.818,eb:33:2e:f9:57:b5, 2015-01-01 00:20:16.165, 0.95, -1.35, 4.586, 445.496, -60.181, 63.293, , , , , , , 15.573, 5.751, -109.204,
 09:31:36.818,eb:33:2e:f9:57:b5, 2015-01-01 00:20:16.165, 1.18, -1.761, 4.326, 489.319, -0.732, 57.312, , , , , , , 17.952, 5.554, -108.951,
 09:31:36.818,eb:33:2e:f9:57:b5, 2015-01-01 00:20:16.165, 1.588, -1.224, 3.898, 525.879, 41.626, 30.945, , , , , , , 20.533, 5.609, -108.699,
 09:31:36.818,eb:33:2e:f9:57:b5, 2015-01-01 00:20:16.165, 1.327, -1.136, 3.527, 558.96, 70.496, -2.686, , , , , , , 23.286, 5.85, -108.539,
 09:31:36.818,eb:33:2e:f9:57:b5, 2015-01-01 00:20:16.165, 1.225, -1.007, 3.704, 579.895, 87.708, -36.743, , , , , , , 26.147, 6.268, -108.474,
 09:31:36.861,eb:33:2e:f9:57:b5, 2015-01-01 00:20:16.165, 0.921, -1.28, 4.169, 591.98, 130.127, -52.856, , , , , , , 29.092, 6.883, -108.424,
 09:31:36.861,eb:33:2e:f9:57:b5, 2015-01-01 00:20:16.165, 1.018, -1.04, 4.101, 610.718, 163.635, -64.392, , , , , , , 32.124, 7.696, -108.281,
 09:31:36.861,eb:33:2e:f9:57:b5, 2015-01-01 00:20:16.165, 0.409, -1.145, 3.35, 623.779, 163.208, -82.397, , , , , , , 35.233, 8.575, -108.149,
 09:31:36.861,eb:33:2e:f9:57:b5, 2015-01-01 00:20:16.165, -0.09, 0.246, 3.99, 621.765, 188.599, -100.098, , , , , , , 38.386, 9.58, -107.99,
 09:31:36.861,eb:33:2e:f9:57:b5, 2015-01-01 00:20:16.165, -0.29, -0.615, 4.5, 559.692, 227.722, -69.824, , , , , , , 41.391, 10.662, -107.617,
 09:31:36.861,eb:33:2e:f9:57:b5, 2015-01-01 00:20:16.165, 0.189, -0.145, 4.308, 490.784, 234.68, -47.791, , , , , , , 44.083, 11.695, -107.034,
 09:31:36.861,eb:33:2e:f9:57:b5, 2015-01-01 00:20:16.165, -0.164, 0.124, 4.234, 476.013, 291.992, -36.255, , , , , , , 46.631, 12.766, -106.205,
 09:31:36.861,eb:33:2e:f9:57:b5, 2015-01-01 00:20:16.165, -0.05, 0.343, 2.876, 442.932, 314.27, -5.859, , , , , , , 49.202, 13.843, -105.128,
 09:31:36.906,eb:33:2e:f9:57:b5, 2015-01-01 00:20:16.165, 0.757, -0.04, 0.205, 342.285, 337.219, 35.828, , , , , , , 51.443, 14.815, -103.738,
 09:31:36.906,eb:33:2e:f9:57:b5, 2015-01-01 00:20:16.165, 0.931, 0.63, -1.436, 301.514, 301.147, 65.674, , , , , , , 53.416, 15.562, -102.233,
 09:31:36.906,eb:33:2e:f9:57:b5, 2015-01-01 00:20:16.165, 1.261, 2.741, -2.165, 222.839, 172.424, 57.373, , , , , , , 55.014, 15.963, -101.107,
 09:31:36.906,eb:33:2e:f9:57:b5, 2015-01-01 00:20:16.165, 1.573, 2.708, -0.162, 158.63, 97.412, 27.771, , , , , , , 56.091, 16.144, -100.459,
 09:31:36.906,eb:33:2e:f9:57:b5, 2015-01-01 00:20:16.165, 1.557, 1.786, 2.315, 159.241, 78.857, -9.583, , , , , , , 56.953, 16.337, -100.08,
 09:31:36.906,eb:33:2e:f9:57:b5, 2015-01-01 00:20:16.165, 1.631, 1.542, 3.016, 207.275, 59.937, -51.086, , , , , , , 57.942, 16.666, -99.877,
 09:31:36.906,eb:33:2e:f9:57:b5, 2015-01-01 00:20:16.165, 1.24, 1.253, 3.4, 264.832, 41.565, -91.309, , , , , , , 59.156, 17.117, -99.86,
 09:31:36.906,eb:33:2e:f9:57:b5, 2015-01-01 00:20:16.165, 1.026, 0.774, 3.032, 306.641, 14.16, -129.089, , , , , , , 60.557, 17.677, -100.042,
 09:31:36.951,eb:33:2e:f9:57:b5, 2015-01-01 00:20:16.165, 1.009, 0.165, 2.754, 325.867, -13.489, -161.56, , , , , , , 62.018, 18.314, -100.437,
 09:31:36.951,eb:33:2e:f9:57:b5, 2015-01-01 00:20:16.165, 0.957, -0.388, 2.917, 330.261, -29.48, -190.369, , , , , , , 63.49, 19.056, -100.986,
 09:31:36.951,eb:33:2e:f9:57:b5, 2015-01-01 00:20:16.165, 0.838, -0.88, 3.289, 323.303, -28.748, -212.952, , , , , , , 64.918, 19.907, -101.602,
 09:31:36.951,eb:33:2e:f9:57:b5, 2015-01-01 00:20:16.165, 0.8, -1.378, 3.657, 307.19, -10.986, -227.6, , , , , , , 66.286, 20.88, -102.184,
 09:31:36.951,eb:33:2e:f9:57:b5, 2015-01-01 00:20:16.165, 0.748, -1.833, 3.951, 285.461, 25.94, -233.521, , , , , , , 67.577, 21.956, -102.629,
 09:31:36.951,eb:33:2e:f9:57:b5, 2015-01-01 00:20:16.165, 0.76, -2.17, 3.97, 261.169, 72.388, -232.483, , , , , , , 68.857, 23.137, -102.832,
 09:31:36.951,eb:33:2e:f9:57:b5, 2015-01-01 00:20:16.165, 0.843, -2.396, 3.78, 234.253, 119.995, -226.44, , , , , , , 70.115, 24.39, -102.744,
 09:31:36.951,eb:33:2e:f9:57:b5, 2015-01-01 00:20:16.165, 0.912, -2.521, 3.43, 205.688, 161.255, -218.75, , , , , , , 71.351, 25.675, -102.393,
 09:31:36.996,eb:33:2e:f9:57:b5, 2015-01-01 00:20:16.500, 1.081, -2.547, 2.901, 177.979, 185.303, -212.28, , , , , , , 72.521, 26.96, -101.838,
 09:31:36.996,eb:33:2e:f9:57:b5, 2015-01-01 00:20:16.500, 1.308, -2.55, 2.448, 152.832, 194.214, -209.229, , , , , , , 73.652, 28.24, -101.146,
 09:31:36.996,eb:33:2e:f9:57:b5, 2015-01-01 00:20:16.500, 1.476, -2.616, 2.158, 131.226, 193.604, -210.022, , , , , , , 74.707, 29.515, -100.399,
 09:31:36.996,eb:33:2e:f9:57:b5, 2015-01-01 00:20:16.500, 1.54, -2.727, 1.891, 112.915, 186.096, -213.257, , , , , , , 75.685, 30.784, -99.651,
 09:31:36.996,eb:33:2e:f9:57:b5, 2015-01-01 00:20:16.500, 1.531, -2.799, 1.576, 94.849, 171.631, -217.102, , , , , , , 76.531, 32.031, -98.965,
 09:31:36.996,eb:33:2e:f9:57:b5, 2015-01-01 00:20:16.500, 1.469, -2.809, 1.279, 74.463, 151.733, -220.154, , , , , , , 77.283, 33.278, -98.333,
 09:31:36.996,eb:33:2e:f9:57:b5, 2015-01-01 00:20:16.500, 1.365, -2.801, 1.094, 52.002, 129.089, -220.703, , , , , , , 77.882, 34.508, -97.8,
 09:31:36.996,eb:33:2e:f9:57:b5, 2015-01-01 00:20:16.500, 1.185, -2.792, 1.077, 29.48, 108.398, -216.797, , , , , , , 78.316, 35.7, -97.377,
 09:31:37.019,eb:33:2e:f9:57:b5, 2015-01-01 00:20:16.500, 1.015, -2.76, 1.133, 7.446, 91.003, -208.801, , , , , , , 78.552, 36.826, -97.075,
 09:31:37.019,eb:33:2e:f9:57:b5, 2015-01-01 00:20:16.500, 0.836, -2.722, 1.313, -13.306, 79.468, -195.312, , , , , , , 78.69, 37.892, -96.812,
 09:31:37.019,eb:33:2e:f9:57:b5, 2015-01-01 00:20:16.500, 0.658, -2.682, 1.535, -32.654, 76.05, -176.086, , , , , , , 78.717, 38.875, -96.559,
 09:31:37.019,eb:33:2e:f9:57:b5, 2015-01-01 00:20:16.500, 0.499, -2.635, 1.74, -51.697, 80.139, -151.367, , , , , , , 78.679, 39.743, -96.268,
 09:31:37.019,eb:33:2e:f9:57:b5, 2015-01-01 00:20:16.500, 0.34, -2.572, 1.88, -71.045, 88.562, -121.46, , , , , , , 78.558, 40.474, -95.927,
 09:31:37.019,eb:33:2e:f9:57:b5, 2015-01-01 00:20:16.500, 0.164, -2.482, 1.965, -90.942, 94.849, -87.402, , , , , , , 78.448, 41.067, -95.46,
 09:31:37.019,eb:33:2e:f9:57:b5, 2015-01-01 00:20:16.500, -0.016, -2.384, 2.001, -110.901, 94.788, -49.683, , , , , , , 78.283, 41.479, -94.927,
 09:31:37.019,eb:33:2e:f9:57:b5, 2015-01-01 00:20:16.500, -0.194, -2.334, 2.016, -130.615, 88.196, -7.751, , , , , , , 78.041, 41.693, -94.362,
 09:31:37.063,eb:33:2e:f9:57:b5, 2015-01-01 00:20:16.500, -0.263, -2.323, 1.978, -151.55, 77.698, 36.621, , , , , , , 77.651, 41.688, -93.84,
 09:31:37.063,eb:33:2e:f9:57:b5, 2015-01-01 00:20:16.500, -0.121, -2.292, 1.912, -176.392, 70.068, 82.397, , , , , , , 77.195, 41.451, -93.268,
 09:31:37.063,eb:33:2e:f9:57:b5, 2015-01-01 00:20:16.500, 0.123, -2.201, 1.909, -204.956, 70.557, 125.732, , , , , , , 76.635, 41.001, -92.648,
 09:31:37.063,eb:33:2e:f9:57:b5, 2015-01-01 00:20:16.500, 0.451, -1.987, 1.882, -232.849, 75.378, 162.537, , , , , , , 75.981, 40.369, -91.95,
 09:31:37.063,eb:33:2e:f9:57:b5, 2015-01-01 00:20:16.500, 0.767, -1.624, 1.801, -257.385, 76.904, 188.416, , , , , , , 75.185, 39.595, -91.214,
 09:31:37.063,eb:33:2e:f9:57:b5, 2015-01-01 00:20:16.500, 1.165, -1.141, 1.602, -278.198, 68.115, 199.829, , , , , , , 74.333, 38.743, -90.428,
 09:31:37.063,eb:33:2e:f9:57:b5, 2015-01-01 00:20:16.500, 1.497, -0.526, 1.315, -298.767, 43.396, 193.97, , , , , , , 73.301, 37.864, -89.742,
 09:31:37.063,eb:33:2e:f9:57:b5, 2015-01-01 00:20:16.500, 1.729, -0.086, 1.093, -311.462, 14.343, 175.476, , , , , , , 72.076, 37.029, -89.236,
 09:31:37.109,eb:33:2e:f9:57:b5, 2015-01-01 00:20:16.500, 1.836, 0.263, 0.862, -319.092, -22.766, 146.729, , , , , , , 70.598, 36.26, -89.006,
 09:31:37.109,eb:33:2e:f9:57:b5, 2015-01-01 00:20:16.500, 1.877, 0.534, 0.627, -324.463, -65.002, 111.206, , , , , , , 68.983, 35.59, -89.011,
 09:31:37.109,eb:33:2e:f9:57:b5, 2015-01-01 00:20:16.500, 1.901, 0.667, 0.496, -330.627, -106.079, 71.96, , , , , , , 67.165, 35.013, -89.324,
 09:31:37.109,eb:33:2e:f9:57:b5, 2015-01-01 00:20:16.500, 1.859, 0.64, 0.483, -341.736, -137.268, 33.447, , , , , , , 65.149, 34.536, -89.901,
 09:31:37.109,eb:33:2e:f9:57:b5, 2015-01-01 00:20:16.500, 1.789, 0.519, 0.54, -358.826, -156.921, -1.953, , , , , , , 62.891, 34.151, -90.725,
 09:31:37.109,eb:33:2e:f9:57:b5, 2015-01-01 00:20:16.500, 1.65, 0.392, 0.631, -381.958, -166.26, -32.227, , , , , , , 60.513, 33.854, -91.653,
 09:31:37.109,eb:33:2e:f9:57:b5, 2015-01-01 00:20:16.500, 1.513, 0.285, 0.738, -408.142, -172.424, -57.068, , , , , , , 57.953, 33.624, -92.675,
 09:31:37.109,eb:33:2e:f9:57:b5, 2015-01-01 00:20:16.500, 1.375, 0.196, 0.82, -434.631, -181.274, -76.782, , , , , , , 55.217, 33.426, -93.79,
 09:31:37.155,eb:33:2e:f9:57:b5, 2015-01-01 00:20:16.500, 1.253, 0.095, 0.892, -458.74, -196.045, -91.248, , , , , , , 52.245, 33.201, -95.048,
 09:31:37.155,eb:33:2e:f9:57:b5, 2015-01-01 00:20:16.500, 1.102, -0.062, 0.987, -478.21, -215.576, -99.731, , , , , , , 49.169, 32.921, -96.372,
 09:31:37.155,eb:33:2e:f9:57:b5, 2015-01-01 00:20:16.500, 1, -0.276, 1.064, -492.554, -239.441, -101.929, , , , , , , 45.967, 32.52, -97.784,
 09:31:37.155,eb:33:2e:f9:57:b5, 2015-01-01 00:20:16.500, 0.997, -0.48, 1.251, -500.122, -264.099, -98.267, , , , , , , 42.687, 31.959, -99.261,
 09:31:37.155,eb:33:2e:f9:57:b5, 2015-01-01 00:20:16.500, 0.923, -0.608, 1.571, -500.488, -286.316, -89.6, , , , , , , 39.353, 31.201, -100.778,
 09:31:37.155,eb:33:2e:f9:57:b5, 2015-01-01 00:20:16.500, 0.806, -0.657, 1.83, -495.239, -308.594, -77.209, , , , , , , 36.123, 30.267, -102.222,
 09:31:37.155,eb:33:2e:f9:57:b5, 2015-01-01 00:20:16.500, 0.727, -0.69, 2.014, -487.61, -330.505, -60.974, , , , , , , 32.992, 29.136, -103.596,
 09:31:37.155,eb:33:2e:f9:57:b5, 2015-01-01 00:20:16.500, 0.814, -0.745, 2.182, -479.675, -348.45, -42.053, , , , , , , 29.976, 27.812, -104.848,
 09:31:37.199,eb:33:2e:f9:57:b5, 2015-01-01 00:20:16.500, 0.849, -0.78, 2.424, -472.412, -358.032, -23.621, , , , , , , 27.048, 26.301, -105.985,
 09:31:37.199,eb:33:2e:f9:57:b5, 2015-01-01 00:20:16.500, 0.933, -0.736, 2.468, -466.37, -369.629, -7.996, , , , , , , 24.296, 24.692, -106.93,
 09:31:37.199,eb:33:2e:f9:57:b5, 2015-01-01 00:20:16.500, 1.08, -0.644, 2.476, -459.839, -382.935, 0.977, , , , , , , 21.654, 22.956, -107.743,
 09:31:37.199,eb:33:2e:f9:57:b5, 2015-01-01 00:20:16.500, 1.104, -0.516, 2.489, -450.012, -399.17, 1.099, , , , , , , 19.105, 21.116, -108.468,
 09:31:37.199,eb:33:2e:f9:57:b5, 2015-01-01 00:20:16.500, 1.083, -0.359, 2.443, -434.57, -423.218, -4.456, , , , , , , 16.617, 19.127, -109.177,
 09:31:37.199,eb:33:2e:f9:57:b5, 2015-01-01 00:20:16.500, 0.975, -0.215, 2.562, -414.917, -447.51, -14.465, , , , , , , 14.293, 17.029, -109.841,
 09:31:37.199,eb:33:2e:f9:57:b5, 2015-01-01 00:20:16.500, 0.763, -0.088, 2.732, -392.822, -468.14, -25.024, , , , , , , 12.101, 14.81, -110.495,
 09:31:37.199,eb:33:2e:f9:57:b5, 2015-01-01 00:20:16.500, 0.479, -0.003, 2.947, -369.751, -485.474, -32.043, , , , , , , 10.058, 12.486, -111.116,
 09:31:37.244,eb:33:2e:f9:57:b5, 2015-01-01 00:20:16.500, 0.186, 0.043, 3.239, -350.403, -496.521, -32.349, , , , , , , 8.113, 10.047, -111.698,
 09:31:37.244,eb:33:2e:f9:57:b5, 2015-01-01 00:20:16.500, -0.128, 0.028, 3.617, -340.637, -497.498, -23.071, , , , , , , 6.328, 7.597, -112.154,
 09:31:37.244,eb:33:2e:f9:57:b5, 2015-01-01 00:20:16.500, -0.446, 0, 3.954, -343.872, -485.046, -3.784, , , , , , , 4.581, 5.158, -112.451,
 09:31:37.244,eb:33:2e:f9:57:b5, 2015-01-01 00:20:16.500, -0.693, -0.022, 4.183, -361.328, -460.876, 25.757, , , , , , , 2.812, 2.802, -112.538,
 09:31:37.244,eb:33:2e:f9:57:b5, 2015-01-01 00:20:16.500, -0.958, -0.053, 4.379, -389.404, -424.133, 63.538, , , , , , , 0.879, 0.56, -112.374,
 09:31:37.244,eb:33:2e:f9:57:b5, 2015-01-01 00:20:16.500, -1.093, 0.03, 4.371, -424.255, -386.597, 103.271, , , , , , , -1.17, -1.439, -111.934,
 09:31:37.244,eb:33:2e:f9:57:b5, 2015-01-01 00:20:16.500, -0.955, 0.337, 4.18, -460.388, -366.882, 136.841, , , , , , , -3.428, -3.279, -111.237,
 09:31:37.244,eb:33:2e:f9:57:b5, 2015-01-01 00:20:16.500, -0.719, 0.715, 4.111, -487.305, -359.985, 162.415, , , , , , , -5.889, -5.021, -110.33,
 09:31:37.312,eb:33:2e:f9:57:b5, 2015-01-01 00:20:16.500, -0.567, 1.139, 4.274, -489.502, -361.206, 179.077, , , , , , , -8.503, -6.724, -109.237,
 09:31:37.312,eb:33:2e:f9:57:b5, 2015-01-01 00:20:16.500, -0.465, 1.632, 4.459, -466.858, -372.498, 180.115, , , , , , , -11.052, -8.383, -108.023,
 09:31:37.312,eb:33:2e:f9:57:b5, 2015-01-01 00:20:16.500, -0.502, 2.177, 4.662, -429.749, -387.329, 173.035, , , , , , , -13.486, -10.058, -106.743,
 09:31:37.312,eb:33:2e:f9:57:b5, 2015-01-01 00:20:16.500, -0.59, 2.675, 4.802, -387.573, -397.583, 161.926, , , , , , , -15.76, -11.755, -105.414,
 09:31:37.312,eb:33:2e:f9:57:b5, 2015-01-01 00:20:16.500, -0.726, 3.089, 5.017, -348.45, -391.907, 150.94, , , , , , , -17.919, -13.447, -104.057,
 09:31:37.312,eb:33:2e:f9:57:b5, 2015-01-01 00:20:16.500, -0.893, 3.49, 5.353, -317.2, -362.488, 142.456, , , , , , , -19.891, -14.991, -102.717,
 09:31:37.312,eb:33:2e:f9:57:b5, 2015-01-01 00:20:16.500, -1.093, 3.929, 5.674, -294.189, -305.664, 136.169, , , , , , , -21.753, -16.287, -101.437,
 09:31:37.312,eb:33:2e:f9:57:b5, 2015-01-01 00:20:16.500, -1.251, 4.404, 5.689, -275.391, -232.727, 130.615, , , , , , , -23.505, -17.243, -100.272,
 09:31:37.314,eb:33:2e:f9:57:b5, 2015-01-01 00:20:16.810, -1.268, 4.874, 5.329, -256.531, -163.086, 121.155, , , , , , , -25.17, -17.869, -99.25,
 09:31:37.314,eb:33:2e:f9:57:b5, 2015-01-01 00:20:16.810, -1.235, 5.312, 4.74, -232.971, -107.666, 103.394, , , , , , , -26.642, -18.204, -98.432,
 09:31:37.314,eb:33:2e:f9:57:b5, 2015-01-01 00:20:16.810, -1.176, 5.691, 4.002, -200.439, -75.439, 77.271, , , , , , , -27.905, -18.386, -97.811,
 09:31:37.314,eb:33:2e:f9:57:b5, 2015-01-01 00:20:16.810, -1.124, 5.951, 3.301, -162.781, -62.439, 44.983, , , , , , , -28.932, -18.539, -97.377,
 09:31:37.314,eb:33:2e:f9:57:b5, 2015-01-01 00:20:16.810, -1.125, 6.01, 2.769, -125.549, -58.35, 11.78, , , , , , , -29.751, -18.754, -97.103,
 09:31:37.314,eb:33:2e:f9:57:b5, 2015-01-01 00:20:16.810, -1.231, 5.865, 2.483, -90.149, -52.979, -17.212, , , , , , , -30.311, -19.006, -96.982,
 09:31:37.314,eb:33:2e:f9:57:b5, 2015-01-01 00:20:16.810, -1.457, 5.562, 2.385, -56.396, -38.208, -38.757, , , , , , , -30.652, -19.281, -97.004,
 09:31:37.314,eb:33:2e:f9:57:b5, 2015-01-01 00:20:16.810, -1.656, 5.198, 2.295, -23.621, -22.4, -53.101, , , , , , , -30.789, -19.523, -97.147,
 09:31:37.357,eb:33:2e:f9:57:b5, 2015-01-01 00:20:16.810, -1.816, 4.805, 2.236, 5.31, -7.812, -57.922, , , , , , , -30.762, -19.737, -97.366,
 09:31:37.357,eb:33:2e:f9:57:b5, 2015-01-01 00:20:16.810, -1.857, 4.326, 2.191, 30.762, 7.935, -53.223, , , , , , , -30.569, -19.874, -97.625,
 09:31:37.357,eb:33:2e:f9:57:b5, 2015-01-01 00:20:16.810, -1.826, 3.827, 2.181, 55.42, 24.597, -41.321, , , , , , , -30.256, -19.913, -97.888,
 09:31:37.357,eb:33:2e:f9:57:b5, 2015-01-01 00:20:16.810, -1.796, 3.364, 2.127, 80.566, 38.269, -25.33, , , , , , , -29.822, -19.852, -98.124,
 09:31:37.357,eb:33:2e:f9:57:b5, 2015-01-01 00:20:16.810, -1.766, 2.908, 1.975, 105.408, 46.509, -6.836, , , , , , , -29.29, -19.704, -98.306,
 09:31:37.357,eb:33:2e:f9:57:b5, 2015-01-01 00:20:16.810, -1.671, 2.453, 1.777, 129.089, 49.438, 13.428, , , , , , , -28.658, -19.479, -98.405,
 09:31:37.357,eb:33:2e:f9:57:b5, 2015-01-01 00:20:16.810, -1.552, 1.994, 1.666, 151.611, 52.002, 34.485, , , , , , , -27.944, -19.193, -98.416,
 09:31:37.357,eb:33:2e:f9:57:b5, 2015-01-01 00:20:16.810, -1.549, 1.515, 1.503, 170.654, 54.016, 57.129, , , , , , , -27.158, -18.847, -98.322,
 09:31:37.378,eb:33:2e:f9:57:b5, 2015-01-01 00:20:16.810, 3.758, 0.969, 1.078, 205.2, 23.743, 68.176, , , , , , , -26.312, -18.484, -98.108,
 09:31:37.378,eb:33:2e:f9:57:b5, 2015-01-01 00:20:16.810, -2.109, 0.488, 9.512, 566.956, 245.483, -108.032, , , , , , , -23.983, -18.831, -98.366,
 09:31:37.378,eb:33:2e:f9:57:b5, 2015-01-01 00:20:16.810, 2.921, 7.253, -4.273, 588.379, 328.247, -232.422, , , , , , , -20.665, -17.188, -99.789,
 09:31:37.378,eb:33:2e:f9:57:b5, 2015-01-01 00:20:16.810, -3.753, 6.43, 3.531, 617.371, 445.19, -384.46, , , , , , , -16.782, -15.864, -102.206,
 09:31:37.378,eb:33:2e:f9:57:b5, 2015-01-01 00:20:16.810, -2.19, -1.269, 5.84, 721.13, 472.656, -161.255, , , , , , , -12.843, -14.073, -104.227,
 09:31:37.378,eb:33:2e:f9:57:b5, 2015-01-01 00:20:16.810, -3.099, 4.89, 5.357, 593.689, 563.049, -117.249, , , , , , , -9.327, -11.497, -105.425,
 09:31:37.379,eb:33:2e:f9:57:b5, 2015-01-01 00:20:16.810, -0.604, 1.732, 4.698, 422.852, 584.045, -29.114, , , , , , , -6.724, -8.729, -106.139,
 09:31:37.379,eb:33:2e:f9:57:b5, 2015-01-01 00:20:16.810, 0.576, 0.658, 4.16, 306.396, 632.019, 24.902, , , , , , , -4.971, -5.669, -106.436,
 09:31:37.423,eb:33:2e:f9:57:b5, 2015-01-01 00:20:16.810, -1.308, 0.764, 2.314, 233.215, 574.524, 37.048, , , , , , , -3.636, -2.609, -106.452,
 09:31:37.423,eb:33:2e:f9:57:b5, 2015-01-01 00:20:16.810, -1.299, 0.497, -0.594, 152.344, 318.97, 65.552, , , , , , , -2.758, -0.483, -106.326,
 09:31:37.423,eb:33:2e:f9:57:b5, 2015-01-01 00:20:16.810, -0.953, 0.761, 1.055, 132.263, 296.509, 58.899, , , , , , , -2.054, 0.978, -106.035,
 09:31:37.423,eb:33:2e:f9:57:b5, 2015-01-01 00:20:16.810, -0.264, 0.098, 0.104, 137.085, 208.862, 33.569, , , , , , , -1.368, 2.186, -105.842,
 09:31:37.423,eb:33:2e:f9:57:b5, 2015-01-01 00:20:16.810, -0.801, 0.64, 0.476, 121.887, 177.856, -5.371, , , , , , , -0.714, 3.159, -105.815,
 09:31:37.423,eb:33:2e:f9:57:b5, 2015-01-01 00:20:16.810, -0.223, 0.75, 0.097, 95.032, 128.296, -5.676, , , , , , , -0.181, 3.911, -105.853,
 09:31:37.423,eb:33:2e:f9:57:b5, 2015-01-01 00:20:16.810, 0.78, 0.678, 0.483, 69.641, 92.407, -9.155, , , , , , , 0.192, 4.417, -105.892,
 09:31:37.423,eb:33:2e:f9:57:b5, 2015-01-01 00:20:16.810, -0.169, 0.2, 1.371, 73.792, 113.831, -27.649, , , , , , , 0.544, 4.922, -105.985,
 09:31:37.468,eb:33:2e:f9:57:b5, 2015-01-01 00:20:16.810, -0.665, 0.262, 1.197, 65.247, 125.305, -26.489, , , , , , , 0.89, 5.554, -106.117,
 09:31:37.468,eb:33:2e:f9:57:b5, 2015-01-01 00:20:16.810, -0.839, -0.128, 0.852, 66.895, 104.431, -26.794, , , , , , , 1.203, 6.125, -106.243,
 09:31:37.468,eb:33:2e:f9:57:b5, 2015-01-01 00:20:16.810, -0.656, -0.234, 0.712, 73.303, 73.425, -23.56, , , , , , , 1.549, 6.553, -106.359,
 09:31:37.468,eb:33:2e:f9:57:b5, 2015-01-01 00:20:16.810, 0.02, 0.032, 0.751, 68.848, 51.819, -19.348, , , , , , , 1.89, 6.855, -106.452,
 09:31:37.468,eb:33:2e:f9:57:b5, 2015-01-01 00:20:16.810, 0.743, 0.144, 1.205, 67.078, 51.453, -19.958, , , , , , , 2.225, 7.103, -106.54,
 09:31:37.468,eb:33:2e:f9:57:b5, 2015-01-01 00:20:16.810, 0.329, 0.296, 1.685, 68.787, 85.266, -30.762, , , , , , , 2.554, 7.46, -106.655,
 09:31:37.468,eb:33:2e:f9:57:b5, 2015-01-01 00:20:16.810, 0.13, 0.236, 1.597, 64.819, 101.929, -35.767, , , , , , , 2.862, 7.954, -106.804,
 09:31:37.468,eb:33:2e:f9:57:b5, 2015-01-01 00:20:16.810, -0.238, 0.099, 1.236, 67.566, 97.534, -38.147, , , , , , , 3.17, 8.459, -106.963,
 09:31:37.515,eb:33:2e:f9:57:b5, 2015-01-01 00:20:16.810, -0.365, -0.08, 1.287, 76.416, 86.06, -32.776, , , , , , , 3.521, 8.926, -107.117,
 09:31:37.515,eb:33:2e:f9:57:b5, 2015-01-01 00:20:16.810, -0.385, 0.323, 0.668, 82.581, 45.349, -24.231, , , , , , , 3.911, 9.245, -107.232,
 09:31:37.515,eb:33:2e:f9:57:b5, 2015-01-01 00:20:16.810, -0.246, -0.154, 1.583, 84.29, 36.682, -14.221, , , , , , , 4.307, 9.454, -107.314,
 09:31:37.515,eb:33:2e:f9:57:b5, 2015-01-01 00:20:16.810, -0.559, -0.398, 1.807, 98.389, 25.635, 0, , , , , , , 4.763, 9.624, -107.336,
 09:31:37.515,eb:33:2e:f9:57:b5, 2015-01-01 00:20:16.810, -1.176, -0.208, 1.431, 123.657, -24.841, 27.527, , , , , , , 5.35, 9.591, -107.254,
 09:31:37.515,eb:33:2e:f9:57:b5, 2015-01-01 00:20:16.810, -0.718, -0.783, 3.042, 162.109, -65.063, 58.105, , , , , , , 6.108, 9.316, -107.045,
 09:31:37.515,eb:33:2e:f9:57:b5, 2015-01-01 00:20:16.810, -0.652, -0.895, 4.215, 208.557, -53.284, 57.922, , , , , , , 7.108, 8.965, -106.776,
 09:31:37.515,eb:33:2e:f9:57:b5, 2015-01-01 00:20:16.810, -0.355, -1.292, 4.915, 254.456, -30.884, 63.416, , , , , , , 8.322, 8.729, -106.496,
 09:31:37.558,eb:33:2e:f9:57:b5, 2015-01-01 00:20:16.810, 0.413, -1.293, 5.14, 309.021, -21.545, 66.345, , , , , , , 9.805, 8.553, -106.188,
 09:31:37.558,eb:33:2e:f9:57:b5, 2015-01-01 00:20:16.810, 0.644, -1.49, 4.528, 370.3, 1.831, 71.716, , , , , , , 11.596, 8.454, -105.848,
 09:31:37.558,eb:33:2e:f9:57:b5, 2015-01-01 00:20:16.810, 0.917, -1.303, 4.264, 420.593, 11.475, 75.134, , , , , , , 13.64, 8.405, -105.48,
 09:31:37.558,eb:33:2e:f9:57:b5, 2015-01-01 00:20:16.810, 0.955, -1.331, 3.999, 472.351, 30.212, 69.641, , , , , , , 15.963, 8.421, -105.09,
 09:31:37.558,eb:33:2e:f9:57:b5, 2015-01-01 00:20:16.810, 0.752, -1.303, 4.076, 515.381, 48.889, 48.584, , , , , , , 18.506, 8.531, -104.744,
 09:31:37.558,eb:33:2e:f9:57:b5, 2015-01-01 00:20:16.810, 0.811, -1.654, 4.17, 552.49, 68.848, 24.17, , , , , , , 21.237, 8.773, -104.48,
 09:31:37.558,eb:33:2e:f9:57:b5, 2015-01-01 00:20:16.810, 0.801, -1.307, 3.894, 578.125, 90.088, 0.183, , , , , , , 24.115, 9.141, -104.266,
 09:31:37.558,eb:33:2e:f9:57:b5, 2015-01-01 00:20:16.810, 0.466, -1.22, 3.869, 602.112, 109.314, -23.01, , , , , , , 27.092, 9.613, -104.117,
 09:31:37.581,eb:33:2e:f9:57:b5, 2015-01-01 00:20:16.810, 0.844, -1.494, 3.822, 615.54, 113.159, -39.185, , , , , , , 30.163, 10.184, -103.991,
 09:31:37.581,eb:33:2e:f9:57:b5, 2015-01-01 00:20:16.810, 0.574, -1.41, 3.723, 634.46, 120.728, -50.842, , , , , , , 33.327, 10.805, -103.854,
 09:31:37.581,eb:33:2e:f9:57:b5, 2015-01-01 00:20:16.810, 0.857, -0.85, 3.736, 633.728, 86.731, -85.205, , , , , , , 36.502, 11.42, -103.87,
 09:31:37.581,eb:33:2e:f9:57:b5, 2015-01-01 00:20:16.810, 0.085, -0.853, 4.064, 621.033, 114.319, -94.421, , , , , , , 39.617, 12.09, -103.925,
 09:31:37.581,eb:33:2e:f9:57:b5, 2015-01-01 00:20:16.810, -0.12, 0.01, 4.527, 587.219, 138.55, -91.98, , , , , , , 42.643, 12.87, -103.865,
 09:31:37.581,eb:33:2e:f9:57:b5, 2015-01-01 00:20:16.810, -0.552, -0.042, 4.597, 520.447, 202.271, -66.833, , , , , , , 45.461, 13.771, -103.524,
 09:31:37.581,eb:33:2e:f9:57:b5, 2015-01-01 00:20:16.810, -0.352, 0.414, 3.127, 462.28, 230.164, -35.095, , , , , , , 48.071, 14.716, -102.859,
 09:31:37.581,eb:33:2e:f9:57:b5, 2015-01-01 00:20:16.810, 0.679, -0.33, 0.247, 359.375, 262.39, 14.954, , , , , , , 50.345, 15.562, -101.893,
 09:31:37.626,eb:33:2e:f9:57:b5, 2015-01-01 00:20:16.810, 1.347, 0.869, -1.543, 282.227, 251.282, 35.461, , , , , , , 52.18, 16.249, -100.739,
 09:31:37.626,eb:33:2e:f9:57:b5, 2015-01-01 00:20:16.810, 0.917, 2.591, -1.279, 221.924, 169.617, 33.447, , , , , , , 53.701, 16.716, -99.778,
 09:31:37.626,eb:33:2e:f9:57:b5, 2015-01-01 00:20:16.810, 1.371, 2.974, 0.037, 173.34, 98.633, 4.578, , , , , , , 54.811, 17.023, -99.185,
 09:31:37.626,eb:33:2e:f9:57:b5, 2015-01-01 00:20:16.810, 1.295, 1.882, 2.373, 171.265, 65.979, -18.677, , , , , , , 55.745, 17.271, -98.893,
 09:31:37.626,eb:33:2e:f9:57:b5, 2015-01-01 00:20:16.810, 1.448, 1.273, 3.108, 210.022, 48.157, -47.791, , , , , , , 56.733, 17.573, -98.756,
 09:31:37.626,eb:33:2e:f9:57:b5, 2015-01-01 00:20:16.810, 1.26, 0.964, 3.54, 269.043, 38.391, -72.388, , , , , , , 57.958, 17.946, -98.751,
 09:31:37.626,eb:33:2e:f9:57:b5, 2015-01-01 00:20:16.810, 1.078, 0.643, 3.477, 311.401, 27.283, -93.445, , , , , , , 59.414, 18.397, -98.839,
 09:31:37.626,eb:33:2e:f9:57:b5, 2015-01-01 00:20:16.810, 0.945, 0.241, 3.191, 325.684, 15.503, -108.398, , , , , , , 60.969, 18.891, -99.014,
 09:31:37.694,eb:33:2e:f9:57:b5, 2015-01-01 00:20:17.170, 0.809, -0.243, 3.116, 325.623, 4.639, -118.958, , , , , , , 62.501, 19.407, -99.261,
 09:31:37.694,eb:33:2e:f9:57:b5, 2015-01-01 00:20:17.170, 0.494, -0.711, 3.254, 317.383, 2.075, -123.779, , , , , , , 64.012, 19.962, -99.547,
 09:31:37.694,eb:33:2e:f9:57:b5, 2015-01-01 00:20:17.170, 0.4, -1.341, 3.469, 309.143, 7.08, -122.986, , , , , , , 65.484, 20.528, -99.8,
 09:31:37.694,eb:33:2e:f9:57:b5, 2015-01-01 00:20:17.170, 0.499, -1.884, 3.785, 301.697, 28.625, -116.394, , , , , , , 66.945, 21.11, -99.97,
 09:31:37.694,eb:33:2e:f9:57:b5, 2015-01-01 00:20:17.170, 0.593, -2.095, 4.017, 291.626, 63.416, -111.755, , , , , , , 68.412, 21.714, -99.965,
 09:31:37.694,eb:33:2e:f9:57:b5, 2015-01-01 00:20:17.170, 0.826, -2.245, 3.958, 278.809, 102.661, -108.948, , , , , , , 69.917, 22.385, -99.739,
 09:31:37.694,eb:33:2e:f9:57:b5, 2015-01-01 00:20:17.170, 1.018, -2.398, 3.773, 260.742, 145.447, -109.863, , , , , , , 71.433, 23.11, -99.272,
 09:31:37.694,eb:33:2e:f9:57:b5, 2015-01-01 00:20:17.170, 1.143, -2.48, 3.286, 238.77, 176.27, -115.906, , , , , , , 72.944, 23.901, -98.602,
 09:31:37.716,eb:33:2e:f9:57:b5, 2015-01-01 00:20:17.170, 1.252, -2.43, 2.596, 214.355, 185.364, -127.014, , , , , , , 74.35, 24.73, -97.839,
 09:31:37.716,eb:33:2e:f9:57:b5, 2015-01-01 00:20:17.170, 1.311, -2.298, 2.009, 188.416, 175.842, -143.066, , , , , , , 75.674, 25.626, -97.07,
 09:31:37.716,eb:33:2e:f9:57:b5, 2015-01-01 00:20:17.170, 1.308, -2.195, 1.665, 163.269, 154.541, -162.781, , , , , , , 76.838, 26.57, -96.383,
 09:31:37.716,eb:33:2e:f9:57:b5, 2015-01-01 00:20:17.170, 1.28, -2.176, 1.572, 140.198, 130.737, -183.411, , , , , , , 77.838, 27.581, -95.828,
 09:31:37.716,eb:33:2e:f9:57:b5, 2015-01-01 00:20:17.170, 1.2, -2.264, 1.663, 119.263, 113.281, -201.721, , , , , , , 78.646, 28.641, -95.411,
 09:31:37.716,eb:33:2e:f9:57:b5, 2015-01-01 00:20:17.170, 1.046, -2.43, 1.782, 99.854, 104.614, -214.417, , , , , , , 79.365, 29.778, -95.037,
 09:31:37.716,eb:33:2e:f9:57:b5, 2015-01-01 00:20:17.170, 0.857, -2.628, 1.848, 80.994, 103.149, -218.506, , , , , , , 79.991, 30.938, -94.669,
 09:31:37.716,eb:33:2e:f9:57:b5, 2015-01-01 00:20:17.170, 0.643, -2.78, 1.852, 60.974, 108.582, -212.83, , , , , , , 80.541, 32.091, -94.268,
 09:31:37.761,eb:33:2e:f9:57:b5, 2015-01-01 00:20:17.170, 0.44, -2.846, 1.767, 39.307, 115.967, -199.28, , , , , , , 80.991, 33.184, -93.829,
 09:31:37.761,eb:33:2e:f9:57:b5, 2015-01-01 00:20:17.170, 0.294, -2.812, 1.627, 15.564, 119.934, -178.65, , , , , , , 81.414, 34.2, -93.296,
 09:31:37.761,eb:33:2e:f9:57:b5, 2015-01-01 00:20:17.170, 0.16, -2.75, 1.557, -8.057, 120.789, -152.039, , , , , , , 81.749, 35.096, -92.708,
 09:31:37.761,eb:33:2e:f9:57:b5, 2015-01-01 00:20:17.170, 0.065, -2.679, 1.555, -29.846, 118.53, -121.094, , , , , , , 81.996, 35.843, -92.098,
 09:31:37.761,eb:33:2e:f9:57:b5, 2015-01-01 00:20:17.170, 0.044, -2.562, 1.564, -49.744, 115.54, -87.28, , , , , , , 82.112, 36.42, -91.5,
 09:31:37.761,eb:33:2e:f9:57:b5, 2015-01-01 00:20:17.170, 0.075, -2.396, 1.586, -68.237, 112.671, -52.734, , , , , , , 82.189, 36.826, -90.857,
 09:31:37.761,eb:33:2e:f9:57:b5, 2015-01-01 00:20:17.170, 0.135, -2.221, 1.596, -84.229, 108.093, -19.043, , , , , , , 82.194, 37.062, -90.192,
 09:31:37.761,eb:33:2e:f9:57:b5, 2015-01-01 00:20:17.170, 0.203, -2.011, 1.577, -98.938, 98.022, 18.555, , , , , , , 82.112, 37.117, -89.555,
 09:31:37.783,eb:33:2e:f9:57:b5, 2015-01-01 00:20:17.170, 0.206, -1.867, 1.549, -107.91, 85.388, 46.448, , , , , , , 81.898, 36.996, -89,
 09:31:37.784,eb:33:2e:f9:57:b5, 2015-01-01 00:20:17.170, 0.198, -1.78, 1.442, -115.784, 66.162, 72.144, , , , , , , 81.639, 36.744, -88.484,
 09:31:37.784,eb:33:2e:f9:57:b5, 2015-01-01 00:20:17.170, 0.276, -1.753, 1.287, -127.136, 44.8, 97.778, , , , , , , 81.271, 36.348, -88.072,
 09:31:37.784,eb:33:2e:f9:57:b5, 2015-01-01 00:20:17.170, 0.432, -1.763, 1.208, -144.653, 30.64, 121.643, , , , , , , 80.777, 35.821, -87.748,
 09:31:37.784,eb:33:2e:f9:57:b5, 2015-01-01 00:20:17.170, 0.676, -1.678, 1.132, -169.434, 25.818, 141.968, , , , , , , 80.101, 35.184, -87.484,
 09:31:37.784,eb:33:2e:f9:57:b5, 2015-01-01 00:20:17.170, 0.901, -1.42, 1.009, -201.294, 26.184, 155.762, , , , , , , 79.343, 34.464, -87.166,
 09:31:37.784,eb:33:2e:f9:57:b5, 2015-01-01 00:20:17.170, 1.15, -1.058, 0.819, -237.549, 21.484, 161.377, , , , , , , 78.415, 33.701, -86.83,
 09:31:37.784,eb:33:2e:f9:57:b5, 2015-01-01 00:20:17.170, 1.417, -0.66, 0.62, -273.926, 10.01, 156.555, , , , , , , 77.272, 32.943, -86.539,
 09:31:37.829,eb:33:2e:f9:57:b5, 2015-01-01 00:20:17.170, 1.639, -0.308, 0.457, -306.458, -7.324, 141.663, , , , , , , 75.861, 32.217, -86.375,
 09:31:37.829,eb:33:2e:f9:57:b5, 2015-01-01 00:20:17.170, 1.761, 0.026, 0.317, -332.52, -33.264, 116.76, , , , , , , 74.279, 31.575, -86.309,
 09:31:37.829,eb:33:2e:f9:57:b5, 2015-01-01 00:20:17.170, 1.792, 0.322, 0.187, -351.99, -68.542, 85.205, , , , , , , 72.488, 31.025, -86.44,
 09:31:37.829,eb:33:2e:f9:57:b5, 2015-01-01 00:20:17.170, 1.743, 0.494, 0.162, -365.723, -107.3, 50.781, , , , , , , 70.483, 30.569, -86.83,
 09:31:37.829,eb:33:2e:f9:57:b5, 2015-01-01 00:20:17.170, 1.627, 0.478, 0.257, -376.221, -141.357, 18.433, , , , , , , 68.247, 30.196, -87.501,
 09:31:37.829,eb:33:2e:f9:57:b5, 2015-01-01 00:20:17.170, 1.509, 0.293, 0.417, -387.878, -164.185, -7.019, , , , , , , 65.918, 29.877, -88.325,
 09:31:37.829,eb:33:2e:f9:57:b5, 2015-01-01 00:20:17.170, 1.377, 0.068, 0.629, -403.137, -172.546, -23.193, , , , , , , 63.474, 29.597, -89.253,
 09:31:37.831,eb:33:2e:f9:57:b5, 2015-01-01 00:20:17.170, 1.256, -0.102, 0.8, -421.265, -172.607, -32.104, , , , , , , 60.93, 29.323, -90.209,
 09:31:37.874,eb:33:2e:f9:57:b5, 2015-01-01 00:20:17.170, 1.188, -0.212, 0.848, -440.247, -173.523, -35.767, , , , , , , 58.25, 29.02, -91.198,
 09:31:37.874,eb:33:2e:f9:57:b5, 2015-01-01 00:20:17.170, 1.135, -0.295, 0.841, -457.397, -181.152, -37.537, , , , , , , 55.53, 28.691, -92.159,
 09:31:37.874,eb:33:2e:f9:57:b5, 2015-01-01 00:20:17.170, 1.058, -0.38, 0.787, -470.886, -199.707, -37.476, , , , , , , 52.718, 28.284, -93.164,
 09:31:37.874,eb:33:2e:f9:57:b5, 2015-01-01 00:20:17.170, 1.085, -0.471, 0.771, -479.614, -228.088, -34.241, , , , , , , 49.828, 27.751, -94.246,
 09:31:37.874,eb:33:2e:f9:57:b5, 2015-01-01 00:20:17.170, 1.094, -0.555, 0.976, -483.398, -258.179, -28.687, , , , , , , 46.829, 27.032, -95.433,
 09:31:37.874,eb:33:2e:f9:57:b5, 2015-01-01 00:20:17.170, 1.028, -0.573, 1.222, -484.924, -284.729, -21.545, , , , , , , 43.874, 26.153, -96.619,
 09:31:37.874,eb:33:2e:f9:57:b5, 2015-01-01 00:20:17.170, 0.976, -0.571, 1.471, -485.107, -306.03, -12.939, , , , , , , 40.941, 25.109, -97.8,
 09:31:37.874,eb:33:2e:f9:57:b5, 2015-01-01 00:20:17.170, 1.061, -0.573, 1.733, -483.154, -322.51, -4.639, , , , , , , 38.046, 23.912, -98.937,
 09:31:37.920,eb:33:2e:f9:57:b5, 2015-01-01 00:20:17.170, 1.079, -0.566, 2.054, -479.797, -331.36, 0, , , , , , , 35.162, 22.577, -100.042,
 09:31:37.920,eb:33:2e:f9:57:b5, 2015-01-01 00:20:17.170, 1.049, -0.542, 2.167, -476.562, -339.661, 2.502, , , , , , , 32.399, 21.176, -101.041,
 09:31:37.920,eb:33:2e:f9:57:b5, 2015-01-01 00:20:17.170, 1.065, -0.548, 2.276, -473.328, -346.436, 2.93, , , , , , , 29.702, 19.693, -101.97,
 09:31:37.920,eb:33:2e:f9:57:b5, 2015-01-01 00:20:17.170, 1.096, -0.576, 2.479, -470.337, -347.961, 0.549, , , , , , , 27.059, 18.16, -102.838,
 09:31:37.920,eb:33:2e:f9:57:b5, 2015-01-01 00:20:17.170, 1.144, -0.57, 2.661, -466.125, -345.947, -5.432, , , , , , , 24.428, 16.578, -103.661,
 09:31:37.920,eb:33:2e:f9:57:b5, 2015-01-01 00:20:17.170, 1.159, -0.493, 2.798, -460.51, -345.398, -15.076, , , , , , , 21.907, 15.013, -104.42,
 09:31:37.920,eb:33:2e:f9:57:b5, 2015-01-01 00:20:17.170, 1.1, -0.353, 2.891, -453.796, -350.952, -28.687, , , , , , , 19.44, 13.425, -105.167,
 09:31:37.920,eb:33:2e:f9:57:b5, 2015-01-01 00:20:17.170, 0.918, -0.164, 2.938, -447.815, -364.929, -44.678, , , , , , , 17.023, 11.783, -105.925,
 09:31:37.964,eb:33:2e:f9:57:b5, 2015-01-01 00:20:17.480, 0.541, -0.001, 3.008, -444.885, -387.085, -58.105, , , , , , , 14.595, 10.003, -106.727,
 09:31:37.964,eb:33:2e:f9:57:b5, 2015-01-01 00:20:17.480, 0.17, 0.097, 3.298, -449.341, -411.438, -63.416, , , , , , , 12.239, 8.119, -107.507,
 09:31:37.964,eb:33:2e:f9:57:b5, 2015-01-01 00:20:17.480, -0.245, 0.093, 3.703, -459.778, -418.152, -54.993, , , , , , , 9.877, 6.13, -108.204,
 09:31:37.964,eb:33:2e:f9:57:b5, 2015-01-01 00:20:17.480, -0.622, 0.07, 4.103, -475.22, -411.377, -33.142, , , , , , , 7.482, 4.114, -108.732,
 09:31:37.964,eb:33:2e:f9:57:b5, 2015-01-01 00:20:17.480, -0.93, 0.089, 4.406, -492.554, -394.836, -1.892, , , , , , , 4.988, 2.087, -109.034,
 09:31:37.964,eb:33:2e:f9:57:b5, 2015-01-01 00:20:17.480, -1.151, 0.243, 4.485, -506.409, -380.493, 33.386, , , , , , , 2.477, 0.159, -109.067,
 09:31:37.965,eb:33:2e:f9:57:b5, 2015-01-01 00:20:17.480, -1.277, 0.586, 4.31, -510.62, -380.493, 68.115, , , , , , , -0.071, -1.736, -108.836,
 09:31:37.965,eb:33:2e:f9:57:b5, 2015-01-01 00:20:17.480, -1.338, 1.064, 4.091, -501.16, -396.24, 97.046, , , , , , , -2.626, -3.669, -108.358,
 09:31:37.985,eb:33:2e:f9:57:b5, 2015-01-01 00:20:17.480, -1.318, 1.624, 3.968, -477.905, -422.607, 117.981, , , , , , , -5.169, -5.718, -107.666,
 09:31:37.985,eb:33:2e:f9:57:b5, 2015-01-01 00:20:17.480, -1.223, 2.219, 4.069, -444.336, -447.998, 130.188, , , , , , , -7.57, -7.828, -106.787,
 09:31:37.985,eb:33:2e:f9:57:b5, 2015-01-01 00:20:17.480, -1.215, 2.794, 4.447, -407.104, -459.351, 135.193, , , , , , , -9.838, -9.981, -105.771,
 09:31:37.985,eb:33:2e:f9:57:b5, 2015-01-01 00:20:17.480, -1.327, 3.278, 4.931, -371.338, -450.317, 136.108, , , , , , , -11.981, -12.09, -104.65,
 09:31:37.985,eb:33:2e:f9:57:b5, 2015-01-01 00:20:17.480, -1.438, 3.657, 5.357, -338.989, -419.678, 135.254, , , , , , , -14.052, -14.073, -103.469,
 09:31:37.985,eb:33:2e:f9:57:b5, 2015-01-01 00:20:17.480, -1.505, 3.946, 5.669, -311.218, -365.479, 135.193, , , , , , , -15.969, -15.776, -102.272,
 09:31:37.985,eb:33:2e:f9:57:b5, 2015-01-01 00:20:17.480, -1.523, 4.238, 5.726, -288.635, -291.809, 134.46, , , , , , , -17.787, -17.128, -101.113,
 09:31:37.985,eb:33:2e:f9:57:b5, 2015-01-01 00:20:17.480, -1.493, 4.62, 5.498, -269.775, -214.172, 128.784, , , , , , , -19.495, -18.073, -100.047,
 09:31:38.032,eb:33:2e:f9:57:b5, 2015-01-01 00:20:17.480, -1.44, 5.068, 5.048, -250, -148.438, 114.014, , , , , , , -21.11, -18.699, -99.124,
 09:31:38.032,eb:33:2e:f9:57:b5, 2015-01-01 00:20:17.480, -1.38, 5.475, 4.404, -226.562, -102.417, 90.393, , , , , , , -22.527, -19.061, -98.399,
 09:31:38.032,eb:33:2e:f9:57:b5, 2015-01-01 00:20:17.480, -1.359, 5.698, 3.712, -198.364, -72.693, 61.707, , , , , , , -23.752, -19.303, -97.872,
 09:31:38.032,eb:33:2e:f9:57:b5, 2015-01-01 00:20:17.480, -1.399, 5.72, 3.059, -166.26, -53.284, 32.471, , , , , , , -24.763, -19.49, -97.526,
 09:31:38.032,eb:33:2e:f9:57:b5, 2015-01-01 00:20:17.480, -1.509, 5.507, 2.482, -131.653, -41.077, 7.202, , , , , , , -25.582, -19.671, -97.339,
 09:31:38.032,eb:33:2e:f9:57:b5, 2015-01-01 00:20:17.480, -1.691, 5.163, 2.065, -95.398, -34.058, -11.23, , , , , , , -26.153, -19.847, -97.273,
 09:31:38.032,eb:33:2e:f9:57:b5, 2015-01-01 00:20:17.480, -1.888, 4.784, 1.801, -56.152, -34.241, -21.851, , , , , , , -26.51, -20.034, -97.284,
 09:31:38.032,eb:33:2e:f9:57:b5, 2015-01-01 00:20:17.480, -2.095, 4.405, 1.611, -16.846, -41.199, -23.926, , , , , , , -26.664, -20.259, -97.306,
 09:31:38.076,eb:33:2e:f9:57:b5, 2015-01-01 00:20:17.480, -2.265, 3.979, 1.434, 18.066, -52.063, -16.724, , , , , , , -26.664, -20.528, -97.289,
 09:31:38.076,eb:33:2e:f9:57:b5, 2015-01-01 00:20:17.480, -2.328, 3.495, 1.34, 47.363, -61.462, -1.77, , , , , , , -26.516, -20.808, -97.191,
 09:31:38.076,eb:33:2e:f9:57:b5, 2015-01-01 00:20:17.480, -2.322, 2.951, 1.346, 73.242, -63.416, 19.104, , , , , , , -26.274, -21.066, -96.993,
 09:31:38.076,eb:33:2e:f9:57:b5, 2015-01-01 00:20:17.480, -2.217, 2.383, 1.333, 98.389, -57.739, 43.64, , , , , , , -25.944, -21.264, -96.685,
 09:31:38.076,eb:33:2e:f9:57:b5, 2015-01-01 00:20:17.480, 2.561, 1.87, 1.241, 122.192, -42.114, 68.604, , , , , , , -25.532, -21.363, -96.29,
 09:31:38.076,eb:33:2e:f9:57:b5, 2015-01-01 00:20:17.480, -3.218, 0.126, 7.371, 526.672, 4.517, -111.145, , , , , , , -23.813, -22.143, -96.196,
 09:31:38.076,eb:33:2e:f9:57:b5, 2015-01-01 00:20:17.480, 3.646, 6.131, -4.031, 572.815, 305.42, -156.128, , , , , , , -20.643, -20.731, -97.202,
 09:31:38.076,eb:33:2e:f9:57:b5, 2015-01-01 00:20:17.480, -1.396, 10.209, 4.801, 662.476, 422.485, -386.414, , , , , , , -16.666, -19.572, -99.476,
 09:31:38.122,eb:33:2e:f9:57:b5, 2015-01-01 00:20:17.480, -2.187, 8.41, 6.288, 830.811, 422.119, -322.815, , , , , , , -12.041, -18.078, -102.003,
 09:31:38.122,eb:33:2e:f9:57:b5, 2015-01-01 00:20:17.480, -3.916, 8.549, 6.985, 763.916, 562.622, -250.488, , , , , , , -7.372, -15.793, -103.87,
 09:31:38.122,eb:33:2e:f9:57:b5, 2015-01-01 00:20:17.480, 0.695, 5.867, 6.167, 419.434, 693.665, -160.4, , , , , , , -4.263, -12.684, -105.287,
 09:31:38.122,eb:33:2e:f9:57:b5, 2015-01-01 00:20:17.480, 4.567, -1.168, 4.95, 318.787, 685.059, 164.307, , , , , , , -2.543, -9.371, -105.331,
 09:31:38.122,eb:33:2e:f9:57:b5, 2015-01-01 00:20:17.480, -4.476, 4.417, 0.874, 141.968, 522.034, 99.304, , , , , , , -1.505, -6.224, -104.7,
 09:31:38.122,eb:33:2e:f9:57:b5, 2015-01-01 00:20:17.480, -3.685, 1.252, 0.922, 53.101, 465.698, 100.586, , , , , , , -1.181, -3.818, -104.409,
 09:31:38.122,eb:33:2e:f9:57:b5, 2015-01-01 00:20:17.480, -2.371, -0.171, -2.625, 92.834, 176.27, 37.964, , , , , , , -0.818, -2.318, -104.019,
 09:31:38.122,eb:33:2e:f9:57:b5, 2015-01-01 00:20:17.480, -0.068, -1.635, -0.958, 147.156, 63.66, 3.784, , , , , , , -0.225, -1.73, -104.046,
 09:31:38.144,eb:33:2e:f9:57:b5, 2015-01-01 00:20:17.480, -0.277, 0.483, 0.678, 135.864, 56.58, 4.028, , , , , , , 0.538, -1.505, -104.008,
 09:31:38.144,eb:33:2e:f9:57:b5, 2015-01-01 00:20:17.480, 1.004, 1.318, 0.713, 77.881, 66.04, 15.32, , , , , , , 1.016, -1.126, -103.947,
 09:31:38.144,eb:33:2e:f9:57:b5, 2015-01-01 00:20:17.480, 0.68, 0.295, 1.056, 81.299, 72.266, -23.315, , , , , , , 1.406, -0.807, -103.975,
 09:31:38.144,eb:33:2e:f9:57:b5, 2015-01-01 00:20:17.480, -0.06, 0.394, 1.428, 76.416, 95.764, -28.137, , , , , , , 1.813, -0.379, -104.101,
 09:31:38.144,eb:33:2e:f9:57:b5, 2015-01-01 00:20:17.480, -1.387, 0.306, 1.069, 63.293, 122.925, -31.311, , , , , , , 2.164, 0.22, -104.238,
 09:31:38.144,eb:33:2e:f9:57:b5, 2015-01-01 00:20:17.480, -0.448, -0.152, 0.165, 65.857, 50.964, -15.747, , , , , , , 2.488, 0.621, -104.332,
 09:31:38.144,eb:33:2e:f9:57:b5, 2015-01-01 00:20:17.480, 0.061, -0.121, 0.894, 67.261, 30.396, -13.367, , , , , , , 2.818, 0.802, -104.392,
 09:31:38.144,eb:33:2e:f9:57:b5, 2015-01-01 00:20:17.480, 0.69, 0.025, 1.446, 71.106, 33.325, -11.353, , , , , , , 3.17, 0.956, -104.442,
 09:31:38.189,eb:33:2e:f9:57:b5, 2015-01-01 00:20:17.480, 0.734, 0.445, 1.799, 60.73, 67.871, -16.724, , , , , , , 3.51, 1.219, -104.496,
 09:31:38.189,eb:33:2e:f9:57:b5, 2015-01-01 00:20:17.480, 0.152, 0.246, 1.813, 55.542, 100.037, -25.574, , , , , , , 3.79, 1.67, -104.579,
 09:31:38.189,eb:33:2e:f9:57:b5, 2015-01-01 00:20:17.480, 0.197, 0.022, 1.542, 62.988, 93.201, -25.085, , , , , , , 4.081, 2.175, -104.672,
 09:31:38.189,eb:33:2e:f9:57:b5, 2015-01-01 00:20:17.480, -0.068, -0.132, 1.997, 70.068, 102.478, -35.034, , , , , , , 4.417, 2.697, -104.793,
 09:31:38.189,eb:33:2e:f9:57:b5, 2015-01-01 00:20:17.480, 0.144, 0.512, 0.597, 63.171, 67.017, -31.067, , , , , , , 4.752, 3.126, -104.925,
 09:31:38.189,eb:33:2e:f9:57:b5, 2015-01-01 00:20:17.480, -0.436, 0.209, 1.324, 73.059, 37.598, -18.433, , , , , , , 5.081, 3.378, -105.029,
 09:31:38.189,eb:33:2e:f9:57:b5, 2015-01-01 00:20:17.480, -1.541, -0.747, 2.608, 124.512, 1.648, 20.142, , , , , , , 5.581, 3.466, -105.013,
 09:31:38.189,eb:33:2e:f9:57:b5, 2015-01-01 00:20:17.480, -1.021, -1.487, 3.493, 189.392, -36.743, 75.806, , , , , , , 6.422, 3.318, -104.749,
 09:31:38.234,eb:33:2e:f9:57:b5, 2015-01-01 00:20:17.480, -0.079, -1.094, 3.892, 239.38, -69.824, 87.219, , , , , , , 7.553, 2.999, -104.348,
 09:31:38.234,eb:33:2e:f9:57:b5, 2015-01-01 00:20:17.480, 0.812, -0.959, 4.419, 285.156, -69.336, 70.312, , , , , , , 8.915, 2.593, -104.008,
 09:31:38.234,eb:33:2e:f9:57:b5, 2015-01-01 00:20:17.480, 1.102, -1.333, 4.91, 349.854, -45.349, 58.35, , , , , , , 10.525, 2.252, -103.755,
 09:31:38.234,eb:33:2e:f9:57:b5, 2015-01-01 00:20:17.480, 1.653, -1.092, 4.684, 409.973, -16.052, 47.913, , , , , , , 12.469, 2.054, -103.53,
 09:31:38.234,eb:33:2e:f9:57:b5, 2015-01-01 00:20:17.480, 1.021, -1.128, 4.12, 467.407, 19.165, 29.602, , , , , , , 14.705, 2.032, -103.332,
 09:31:38.234,eb:33:2e:f9:57:b5, 2015-01-01 00:20:17.480, 0.808, -0.711, 3.934, 496.704, 23.926, -2.808, , , , , , , 17.144, 2.126, -103.25,
 09:31:38.234,eb:33:2e:f9:57:b5, 2015-01-01 00:20:17.480, 0.554, -1.27, 4.344, 525.818, 34.729, -28.259, , , , , , , 19.715, 2.296, -103.293,
 09:31:38.234,eb:33:2e:f9:57:b5, 2015-01-01 00:20:17.480, 0.434, -1.396, 4.195, 552.49, 54.993, -39.612, , , , , , , 22.412, 2.582, -103.37,
 09:31:38.278,eb:33:2e:f9:57:b5, 2015-01-01 00:20:17.795, 0.668, -1.027, 3.469, 591.675, 43.213, -52.246, , , , , , , 25.296, 2.928, -103.469,
 09:31:38.278,eb:33:2e:f9:57:b5, 2015-01-01 00:20:17.795, 0.5, -0.729, 3.021, 619.324, 13.672, -79.102, , , , , , , 28.334, 3.186, -103.722,
 09:31:38.278,eb:33:2e:f9:57:b5, 2015-01-01 00:20:17.795, 0.725, -0.89, 3.64, 627.502, -7.568, -108.093, , , , , , , 31.437, 3.406, -104.15,
 09:31:38.278,eb:33:2e:f9:57:b5, 2015-01-01 00:20:17.795, 0.583, -1.27, 4.509, 616.882, 26.245, -120.056, , , , , , , 34.519, 3.763, -104.612,
 09:31:38.278,eb:33:2e:f9:57:b5, 2015-01-01 00:20:17.795, 0.466, -1.227, 4.724, 605.53, 80.688, -127.747, , , , , , , 37.546, 4.356, -104.947,
 09:31:38.278,eb:33:2e:f9:57:b5, 2015-01-01 00:20:17.795, -0.047, -0.858, 5.22, 609.375, 159.485, -118.896, , , , , , , 40.567, 5.224, -105.035,
 09:31:38.278,eb:33:2e:f9:57:b5, 2015-01-01 00:20:17.795, -0.411, 0.455, 4.603, 613.525, 229.614, -124.512, , , , , , , 43.649, 6.378, -104.799,
 09:31:38.278,eb:33:2e:f9:57:b5, 2015-01-01 00:20:17.795, -0.737, 0.72, 3.562, 602.844, 211.975, -91.248, , , , , , , 46.78, 7.509, -104.376,
 09:31:38.323,eb:33:2e:f9:57:b5, 2015-01-01 00:20:17.795, -0.22, 0.967, -0.041, 472.107, 184.692, -70.312, , , , , , , 49.51, 8.487, -103.892,
 09:31:38.323,eb:33:2e:f9:57:b5, 2015-01-01 00:20:17.795, 1.11, 0.741, -2.181, 318.97, 170.41, -36.56, , , , , , , 51.46, 9.212, -103.392,
 09:31:38.323,eb:33:2e:f9:57:b5, 2015-01-01 00:20:17.795, 0.682, 0.986, -1.62, 264.465, 145.63, -22.644, , , , , , , 52.965, 9.833, -102.805,
 09:31:38.323,eb:33:2e:f9:57:b5, 2015-01-01 00:20:17.795, 0.295, 2.245, -0.654, 194.946, 101.746, -26.367, , , , , , , 54.152, 10.261, -102.409,
 09:31:38.323,eb:33:2e:f9:57:b5, 2015-01-01 00:20:17.795, 0.578, 1.703, 1.401, 161.194, 72.937, -30.334, , , , , , , 55.042, 10.618, -102.156,
 09:31:38.323,eb:33:2e:f9:57:b5, 2015-01-01 00:20:17.795, 0.663, 0.932, 3.256, 181.519, 76.05, -34.668, , , , , , , 55.931, 10.97, -101.926,
 09:31:38.323,eb:33:2e:f9:57:b5, 2015-01-01 00:20:17.795, 0.856, 0.68, 3.672, 243.774, 56.213, -46.387, , , , , , , 57.047, 11.321, -101.772,
 09:31:38.323,eb:33:2e:f9:57:b5, 2015-01-01 00:20:17.795, 0.61, 0.561, 3.65, 301.575, 38.269, -56.641, , , , , , , 58.458, 11.667, -101.711,
 09:31:38.347,eb:33:2e:f9:57:b5, 2015-01-01 00:20:17.795, 0.5, 0.267, 3.113, 326.538, 19.714, -61.34, , , , , , , 60.04, 11.986, -101.755,
 09:31:38.347,eb:33:2e:f9:57:b5, 2015-01-01 00:20:17.795, 0.512, -0.225, 2.974, 329.407, 9.888, -61.829, , , , , , , 61.666, 12.288, -101.849,
 09:31:38.347,eb:33:2e:f9:57:b5, 2015-01-01 00:20:17.795, 0.545, -0.651, 3.212, 327.393, 5.92, -60.791, , , , , , , 63.281, 12.579, -101.959,
 09:31:38.347,eb:33:2e:f9:57:b5, 2015-01-01 00:20:17.795, 0.337, -0.973, 3.645, 319.336, 15.991, -55.481, , , , , , , 64.88, 12.859, -102.041,
 09:31:38.347,eb:33:2e:f9:57:b5, 2015-01-01 00:20:17.795, 0.177, -1.333, 3.873, 308.228, 34.302, -49.194, , , , , , , 66.429, 13.145, -102.025,
 09:31:38.347,eb:33:2e:f9:57:b5, 2015-01-01 00:20:17.795, 0.413, -1.8, 3.921, 303.711, 55.603, -42.725, , , , , , , 67.989, 13.442, -101.898,
 09:31:38.347,eb:33:2e:f9:57:b5, 2015-01-01 00:20:17.795, 0.632, -1.926, 3.957, 297.791, 81.238, -39.551, , , , , , , 69.549, 13.76, -101.629,
 09:31:38.347,eb:33:2e:f9:57:b5, 2015-01-01 00:20:17.795, 0.863, -1.937, 3.867, 288.757, 107.3, -43.945, , , , , , , 71.109, 14.117, -101.228,
 09:31:38.390,eb:33:2e:f9:57:b5, 2015-01-01 00:20:17.795, 1.107, -2.019, 3.733, 278.503, 134.155, -55.847, , , , , , , 72.631, 14.54, -100.712,
 09:31:38.390,eb:33:2e:f9:57:b5, 2015-01-01 00:20:17.795, 1.336, -2.14, 3.516, 267.944, 156.25, -74.951, , , , , , , 74.152, 15.073, -100.074,
 09:31:38.390,eb:33:2e:f9:57:b5, 2015-01-01 00:20:17.795, 1.538, -2.227, 3.152, 255.737, 166.809, -101.135, , , , , , , 75.641, 15.721, -99.371,
 09:31:38.390,eb:33:2e:f9:57:b5, 2015-01-01 00:20:17.795, 1.626, -2.239, 2.679, 237.732, 166.565, -132.385, , , , , , , 77.064, 16.501, -98.674,
 09:31:38.390,eb:33:2e:f9:57:b5, 2015-01-01 00:20:17.795, 1.628, -2.183, 2.149, 211.06, 155.457, -165.649, , , , , , , 78.333, 17.408, -98.031,
 09:31:38.390,eb:33:2e:f9:57:b5, 2015-01-01 00:20:17.795, 1.551, -2.127, 1.801, 178.345, 137.024, -198.608, , , , , , , 79.464, 18.463, -97.471,
 09:31:38.390,eb:33:2e:f9:57:b5, 2015-01-01 00:20:17.795, 1.459, -2.113, 1.7, 143.372, 116.028, -228.943, , , , , , , 80.398, 19.638, -97.02,
 09:31:38.390,eb:33:2e:f9:57:b5, 2015-01-01 00:20:17.795, 1.36, -2.177, 1.793, 108.948, 100.037, -253.723, , , , , , , 81.129, 20.929, -96.674,
 09:31:38.458,eb:33:2e:f9:57:b5, 2015-01-01 00:20:17.795, 1.23, -2.325, 1.945, 77.454, 92.59, -270.752, , , , , , , 81.65, 22.302, -96.394,
 09:31:38.458,eb:33:2e:f9:57:b5, 2015-01-01 00:20:17.795, 1.084, -2.477, 2.049, 48.218, 92.773, -279.419, , , , , , , 82.062, 23.736, -96.114,
 09:31:38.458,eb:33:2e:f9:57:b5, 2015-01-01 00:20:17.795, 0.926, -2.595, 2.085, 20.203, 100.525, -278.809, , , , , , , 82.348, 25.186, -95.79,
 09:31:38.458,eb:33:2e:f9:57:b5, 2015-01-01 00:20:17.795, 0.755, -2.652, 2.065, -5.676, 111.084, -270.142, , , , , , , 82.54, 26.614, -95.4,
 09:31:38.458,eb:33:2e:f9:57:b5, 2015-01-01 00:20:17.795, 0.588, -2.619, 1.979, -29.907, 120.544, -253.845, , , , , , , 82.612, 27.977, -94.96,
 09:31:38.458,eb:33:2e:f9:57:b5, 2015-01-01 00:20:17.795, 0.441, -2.528, 1.86, -52.429, 126.892, -230.53, , , , , , , 82.645, 29.251, -94.427,
 09:31:38.458,eb:33:2e:f9:57:b5, 2015-01-01 00:20:17.795, 0.327, -2.428, 1.826, -71.594, 128.54, -203.125, , , , , , , 82.606, 30.394, -93.851,
 09:31:38.458,eb:33:2e:f9:57:b5, 2015-01-01 00:20:17.795, 0.22, -2.27, 1.833, -90.271, 127.197, -164.551, , , , , , , 82.507, 31.377, -93.241,
 09:31:38.504,eb:33:2e:f9:57:b5, 2015-01-01 00:20:17.795, 0.084, -2.165, 1.825, -102.661, 118.042, -129.333, , , , , , , 82.282, 32.162, -92.675,
 09:31:38.504,eb:33:2e:f9:57:b5, 2015-01-01 00:20:17.795, -0.062, -2.105, 1.776, -113.647, 100.037, -91.064, , , , , , , 82.029, 32.767, -92.126,
 09:31:38.504,eb:33:2e:f9:57:b5, 2015-01-01 00:20:17.795, -0.109, -2.134, 1.689, -125.122, 77.881, -49.011, , , , , , , 81.678, 33.151, -91.664,
 09:31:38.504,eb:33:2e:f9:57:b5, 2015-01-01 00:20:17.795, -0.017, -2.221, 1.594, -141.052, 59.448, -4.883, , , , , , , 81.205, 33.316, -91.296,
 09:31:38.504,eb:33:2e:f9:57:b5, 2015-01-01 00:20:17.795, 0.165, -2.267, 1.43, -164.978, 51.392, 39.185, , , , , , , 80.563, 33.25, -90.994,
 09:31:38.504,eb:33:2e:f9:57:b5, 2015-01-01 00:20:17.795, 0.434, -2.17, 1.228, -194.397, 50.354, 80.627, , , , , , , 79.849, 32.975, -90.632,
 09:31:38.504,eb:33:2e:f9:57:b5, 2015-01-01 00:20:17.795, 0.682, -1.872, 1.137, -222.9, 47.607, 112.366, , , , , , , 79.008, 32.525, -90.225,
 09:31:38.504,eb:33:2e:f9:57:b5, 2015-01-01 00:20:17.795, 0.98, -1.415, 0.905, -249.878, 33.142, 131.47, , , , , , , 78.014, 31.954, -89.846,
 09:31:38.526,eb:33:2e:f9:57:b5, 2015-01-01 00:20:17.795, 1.329, -0.945, 0.575, -277.527, 8.179, 137.512, , , , , , , 76.772, 31.306, -89.604,
 09:31:38.526,eb:33:2e:f9:57:b5, 2015-01-01 00:20:17.795, 1.59, -0.576, 0.273, -304.871, -23.865, 132.08, , , , , , , 75.372, 30.641, -89.478,
 09:31:38.526,eb:33:2e:f9:57:b5, 2015-01-01 00:20:17.795, 1.749, -0.241, 0.083, -329.712, -62.256, 115.906, , , , , , , 73.735, 29.982, -89.539,
 09:31:38.526,eb:33:2e:f9:57:b5, 2015-01-01 00:20:17.795, 1.796, 0.079, 0.029, -348.877, -106.323, 91.125, , , , , , , 71.867, 29.366, -89.852,
 09:31:38.526,eb:33:2e:f9:57:b5, 2015-01-01 00:20:17.795, 1.77, 0.328, 0.074, -363.159, -152.161, 60.486, , , , , , , 69.741, 28.801, -90.478,
 09:31:38.526,eb:33:2e:f9:57:b5, 2015-01-01 00:20:17.795, 1.676, 0.386, 0.178, -375.732, -191.956, 28.381, , , , , , , 67.478, 28.284, -91.329,
 09:31:38.526,eb:33:2e:f9:57:b5, 2015-01-01 00:20:17.795, 1.574, 0.237, 0.331, -390.259, -219.727, 1.221, , , , , , , 65.061, 27.806, -92.384,
 09:31:38.526,eb:33:2e:f9:57:b5, 2015-01-01 00:20:17.795, 1.458, 0.035, 0.595, -409.912, -231.689, -18.25, , , , , , , 62.501, 27.35, -93.571,
 09:31:38.550,eb:33:2e:f9:57:b5, 2015-01-01 00:20:17.795, 1.32, -0.161, 0.93, -433.35, -228.76, -29.907, , , , , , , 59.782, 26.9, -94.812,
 09:31:38.550,eb:33:2e:f9:57:b5, 2015-01-01 00:20:17.795, 1.221, -0.32, 1.154, -455.627, -221.558, -35.522, , , , , , , 57.019, 26.455, -95.977,
 09:31:38.550,eb:33:2e:f9:57:b5, 2015-01-01 00:20:17.795, 1.12, -0.448, 1.241, -473.816, -220.093, -38.086, , , , , , , 54.185, 25.988, -97.103,
 09:31:38.550,eb:33:2e:f9:57:b5, 2015-01-01 00:20:17.795, 1.021, -0.543, 1.154, -488.159, -231.262, -37.903, , , , , , , 51.284, 25.461, -98.229,
 09:31:38.550,eb:33:2e:f9:57:b5, 2015-01-01 00:20:17.795, 1.025, -0.624, 1.083, -498.901, -256.47, -35.278, , , , , , , 48.257, 24.791, -99.426,
